"Time (s)","Acceleration x (m/s^2)","Acceleration y (m/s^2)","Acceleration z (m/s^2)"
2.258035500E-2,-3.830722570E-1,-5.482721925E-1,9.902418137E0
3.265110100E-2,-3.878606856E-1,-5.578489900E-1,9.962273598E0
4.269132900E-2,-3.758896589E-1,-5.530605912E-1,9.981427193E0
5.276207500E-2,-3.782838583E-1,-5.410895944E-1,9.947908401E0
6.280230300E-2,-3.711012602E-1,-5.267243981E-1,9.907206535E0
7.287304900E-2,-3.758896589E-1,-5.482721925E-1,9.900024414E0
8.294379400E-2,-3.902548850E-1,-5.698199868E-1,9.916783333E0
9.298402400E-2,-3.734954596E-1,-5.650315881E-1,9.892841339E0
1.030547690E-1,-3.950432837E-1,-5.626373887E-1,9.888052940E0
1.130949980E-1,-4.237737060E-1,-5.698199868E-1,9.885659218E0
1.231657430E-1,-4.141969085E-1,-5.722141862E-1,9.904812813E0
1.332059720E-1,-4.237737060E-1,-5.937620401E-1,9.945513725E0
1.432767170E-1,-4.501099288E-1,-6.129156351E-1,9.979032516E0
1.533169460E-1,-4.285621047E-1,-6.081272364E-1,9.871294022E0
1.633876920E-1,-3.711012602E-1,-6.416460276E-1,9.916783333E0
1.734584380E-1,-4.309563041E-1,-6.105214357E-1,9.883264542E0
1.834986660E-1,-3.734954596E-1,-6.177040339E-1,9.919178009E0
1.935694120E-1,-4.237737060E-1,-6.081272364E-1,9.926360130E0
2.036096400E-1,-4.070142806E-1,-6.009446383E-1,9.914389610E0
2.136803860E-1,-4.022258818E-1,-6.105214357E-1,9.940725327E0
2.237511320E-1,-4.309563041E-1,-5.746083856E-1,9.892841339E0
2.337913610E-1,-3.998316824E-1,-5.865794420E-1,9.959878922E0
2.438621070E-1,-4.453215301E-1,-5.602431893E-1,9.895236015E0
2.539023350E-1,-4.046200812E-1,-5.578489900E-1,9.907206535E0
2.639730810E-1,-4.022258818E-1,-5.506663918E-1,9.926360130E0
2.740438270E-1,-4.189853072E-1,-5.243301988E-1,9.883264542E0
2.840840550E-1,-3.758896589E-1,-5.434837937E-1,9.947908401E0
2.941548010E-1,-4.261679053E-1,-5.219359994E-1,9.854534149E0
3.041950290E-1,-3.734954596E-1,-5.243301988E-1,9.909601212E0
3.142657760E-1,-4.213795066E-1,-5.363011956E-1,9.931148529E0
3.243365210E-1,-3.711012602E-1,-5.099649429E-1,9.940725327E0
3.343767500E-1,-3.687070608E-1,-5.291185975E-1,1.000536919E1
3.444474950E-1,-4.141969085E-1,-5.171475410E-1,9.921571732E0
3.544877230E-1,-3.567360640E-1,-5.530605912E-1,9.938331604E0
3.645584690E-1,-4.261679053E-1,-5.386953950E-1,9.888052940E0
3.746292150E-1,-3.471592367E-1,-5.363011956E-1,9.909601212E0
3.846694440E-1,-4.285621047E-1,-5.602431893E-1,9.868899345E0
3.947401900E-1,-4.094084799E-1,-5.722141862E-1,9.799467087E0
4.047804180E-1,-4.237737060E-1,-5.913678408E-1,9.864110947E0
4.148511640E-1,-4.070142806E-1,-5.746083856E-1,9.959878922E0
4.249219100E-1,-3.256114423E-1,-5.793967843E-1,1.016099167E1
4.349621380E-1,-4.094084799E-1,-5.937620401E-1,1.002931118E1
4.450328840E-1,-3.902548850E-1,-6.153098345E-1,9.801861763E0
4.550731120E-1,-4.501099288E-1,-6.200982332E-1,9.660603523E0
4.651438590E-1,-4.285621047E-1,-5.985504389E-1,9.691728592E0
4.752146050E-1,-3.902548850E-1,-6.057330370E-1,9.923966408E0
4.852548330E-1,-4.189853072E-1,-5.363011956E-1,1.004128170E1
4.953255790E-1,-3.256114423E-1,-5.315127969E-1,1.018014526E1
5.053658070E-1,-3.998316824E-1,-5.099649429E-1,1.014183807E1
5.154365530E-1,-3.758896589E-1,-4.788403511E-1,1.003649330E1
5.254767810E-1,-3.806780577E-1,-5.147533417E-1,9.969455719E0
5.355475270E-1,-4.261679053E-1,-5.171475410E-1,9.801861763E0
5.456182730E-1,-3.950432837E-1,-5.123591423E-1,9.818621635E0
5.556585010E-1,-4.812345505E-1,-5.291185975E-1,9.751583099E0
5.657292470E-1,-4.141969085E-1,-5.506663918E-1,9.818621635E0
5.757694750E-1,-4.405331016E-1,-5.578489900E-1,9.885659218E0
5.858402210E-1,-4.046200812E-1,-5.482721925E-1,9.883264542E0
5.958804490E-1,-3.758896589E-1,-5.770025849E-1,9.955090523E0
6.059511950E-1,-4.357447028E-1,-5.722141862E-1,9.916783333E0
6.160219410E-1,-3.591302633E-1,-6.153098345E-1,9.964667320E0
6.260621700E-1,-4.596867263E-1,-6.200982332E-1,9.945513725E0
6.361329160E-1,-3.711012602E-1,-5.937620401E-1,9.959878922E0
6.461731440E-1,-3.782838583E-1,-5.817909837E-1,1.001973438E1
6.562438900E-1,-3.998316824E-1,-5.602431893E-1,9.976638794E0
6.662841180E-1,-3.758896589E-1,-5.554547906E-1,1.000536919E1
6.763548640E-1,-4.213795066E-1,-5.243301988E-1,9.962273598E0
6.864256100E-1,-4.285621047E-1,-5.291185975E-1,9.923966408E0
6.964658390E-1,-3.974374831E-1,-5.267243981E-1,9.871294022E0
7.065365850E-1,-3.974374831E-1,-5.315127969E-1,9.852140427E0
7.165768130E-1,-3.926490843E-1,-5.195417404E-1,9.885659218E0
7.266475590E-1,-4.094084799E-1,-5.434837937E-1,9.988609314E0
7.367183050E-1,-3.998316824E-1,-5.578489900E-1,9.991003990E0
7.467585330E-1,-3.878606856E-1,-5.530605912E-1,9.962273598E0
7.568292780E-1,-3.974374831E-1,-5.458779931E-1,9.950302124E0
7.668695080E-1,-3.806780577E-1,-5.770025849E-1,9.928754807E0
7.769402530E-1,-3.926490843E-1,-6.009446383E-1,9.935936928E0
7.870109990E-1,-4.309563041E-1,-6.177040339E-1,9.962273598E0
7.970512270E-1,-4.381389022E-1,-6.320692301E-1,9.976638794E0
8.071219730E-1,-4.548983276E-1,-6.727706790E-1,9.993397713E0
8.171622010E-1,-4.644751251E-1,-6.799532771E-1,9.955090523E0
8.272329470E-1,-4.525041282E-1,-6.703764796E-1,9.914389610E0
8.372731760E-1,-4.548983276E-1,-6.943184733E-1,9.813833237E0
8.473439220E-1,-4.381389022E-1,-7.254431248E-1,9.797073364E0
8.574146680E-1,-4.357447028E-1,-7.924807668E-1,9.809044838E0
8.674548960E-1,-4.141969085E-1,-7.613561153E-1,9.835380554E0
8.775256420E-1,-4.716577232E-1,-8.643068075E-1,1.003170490E1
8.875658700E-1,-4.764461517E-1,-8.762778044E-1,9.945513725E0
8.976366160E-1,-4.405331016E-1,-8.954314590E-1,9.935936928E0
9.076768450E-1,-4.955997467E-1,-9.217676520E-1,9.868899345E0
9.177475910E-1,-4.740519226E-1,-9.409212470E-1,9.876082420E0
9.277878190E-1,-4.836287498E-1,-9.145850539E-1,9.880870819E0
9.378585650E-1,-4.764461517E-1,-9.528923035E-1,9.950302124E0
9.479293110E-1,-5.051765442E-1,-9.624691010E-1,9.928754807E0
9.579695390E-1,-4.860229492E-1,-9.289502501E-1,9.916783333E0
9.680402850E-1,-5.506663918E-1,-8.882488012E-1,9.830592155E0
9.780805130E-1,-4.860229492E-1,-9.361328483E-1,9.854534149E0
9.881512600E-1,-5.458779931E-1,-9.744400978E-1,9.864110947E0
9.981914880E-1,-5.123591423E-1,-9.528923035E-1,9.737217903E0
1.008262234E0,-5.027823448E-1,-9.744400978E-1,9.940725327E0
1.018302462E0,-4.836287498E-1,-1.031900883E0,9.880870819E0
1.028373208E0,-5.147533417E-1,-1.077390790E0,9.888052940E0
1.038413436E0,-5.315127969E-1,-1.055842996E0,9.842563629E0
1.048484182E0,-4.788403511E-1,-1.089361787E0,9.868899345E0
1.058554928E0,-5.003881454E-1,-1.106121182E0,9.890447617E0
1.068595157E0,-4.716577232E-1,-1.113303781E0,9.943120003E0
1.078665902E0,-4.979939461E-1,-1.137245774E0,9.979032516E0
1.088706131E0,-4.429273009E-1,-1.151610970E0,9.962273598E0
1.098776876E0,-4.955997467E-1,-1.175553083E0,9.871294022E0
1.108817105E0,-5.075707436E-1,-1.223437071E0,9.854534149E0
1.118887850E0,-4.644751251E-1,-1.228225470E0,9.864110947E0
1.128958596E0,-4.884171486E-1,-1.256955862E0,9.885659218E0
1.138998825E0,-5.123591423E-1,-1.259350061E0,9.900024414E0
1.149069571E0,-5.147533417E-1,-1.302445769E0,9.888052940E0
1.159109799E0,-4.692635238E-1,-1.345541358E0,9.854534149E0
1.169180545E0,-4.955997467E-1,-1.391031146E0,9.856928825E0
1.179220773E0,-5.722141862E-1,-1.419761658E0,1.006761837E1
1.189291519E0,-5.123591423E-1,-1.436521053E0,9.782708168E0
1.199331748E0,-5.195417404E-1,-1.544260144E0,9.703699112E0
1.209402494E0,-5.363011956E-1,-1.505952835E0,9.689333916E0
1.219473240E0,-4.812345505E-1,-1.515529633E0,9.888052940E0
1.229513468E0,-5.363011956E-1,-1.534683347E0,9.995792389E0
1.239584214E0,-4.908113480E-1,-1.587355733E0,9.861717224E0
1.249624442E0,-5.051765442E-1,-1.656787634E0,9.742006302E0
1.259695188E0,-5.099649429E-1,-1.671152830E0,9.581595421E0
1.269735417E0,-4.932055473E-1,-1.721431017E0,9.588777542E0
1.279806163E0,-5.315127969E-1,-1.719036818E0,9.734824181E0
1.289846391E0,-5.410895944E-1,-1.640028119E0,9.876082420E0
1.299917137E0,-5.410895944E-1,-1.707065821E0,1.004846478E1
1.309957365E0,-5.267243981E-1,-1.707065821E0,1.004367638E1
1.320028111E0,-5.315127969E-1,-1.671152830E0,9.945513725E0
1.330068339E0,-5.482721925E-1,-1.666364431E0,9.821015358E0
1.340139085E0,-5.243301988E-1,-1.632845521E0,9.715670586E0
1.350209832E0,-5.578489900E-1,-1.661576033E0,9.689333916E0
1.360250060E0,-5.578489900E-1,-1.680729628E0,9.758766174E0
1.370320806E0,-5.458779931E-1,-1.707065821E0,9.806650162E0
1.380361034E0,-4.979939461E-1,-1.726219416E0,9.775525093E0
1.390431780E0,-5.674257874E-1,-1.769315004E0,9.816226959E0
1.400472008E0,-5.698199868E-1,-1.771709204E0,9.794678688E0
1.410542754E0,-5.363011956E-1,-1.819593310E0,9.770736694E0
1.420582983E0,-5.195417404E-1,-1.807622313E0,9.737217903E0
1.430653728E0,-5.410895944E-1,-1.814804912E0,9.746794701E0
1.440693957E0,-5.243301988E-1,-1.817199111E0,9.765948296E0
1.450764702E0,-5.243301988E-1,-1.886630893E0,9.816226959E0
1.460804931E0,-5.315127969E-1,-1.946485996E0,9.816226959E0
1.470875676E0,-4.955997467E-1,-1.968033791E0,9.823410034E0
1.480946422E0,-5.267243981E-1,-2.011129379E0,9.818621635E0
1.490986651E0,-5.458779931E-1,-2.054224968E0,9.730035782E0
1.501057397E0,-5.171475410E-1,-2.035071373E0,9.643844604E0
1.511097625E0,-5.626373887E-1,-2.023100376E0,9.540893555E0
1.521168371E0,-5.554547906E-1,-2.008735180E0,9.533711433E0
1.531208599E0,-5.386953950E-1,-2.027888775E0,9.605537415E0
1.541279345E0,-5.267243981E-1,-2.090138197E0,9.641449928E0
1.551319574E0,-5.291185975E-1,-2.178723574E0,9.634267807E0
1.561390320E0,-5.219359994E-1,-2.262520552E0,9.538499832E0
1.571430548E0,-5.051765442E-1,-2.310404539E0,9.478644371E0
1.581501294E0,-5.171475410E-1,-2.336740971E0,9.363722801E0
1.591572040E0,-4.884171486E-1,-2.341529369E0,9.346963882E0
1.601612268E0,-5.386953950E-1,-2.387019157E0,9.339780807E0
1.611683014E0,-5.746083856E-1,-2.434903145E0,9.311050415E0
1.621723242E0,-6.344634295E-1,-2.494758129E0,9.366117477E0
1.631793989E0,-6.033388376E-1,-2.566584110E0,9.516951561E0
1.641834217E0,-5.913678408E-1,-2.612074137E0,9.710882187E0
1.651904963E0,-5.482721925E-1,-2.652775526E0,9.859322548E0
1.661945191E0,-5.315127969E-1,-2.683900118E0,9.914389610E0
1.672015937E0,-5.386953950E-1,-2.671929121E0,9.830592155E0
1.682056165E0,-5.363011956E-1,-2.724601507E0,9.696516991E0
1.692126911E0,-4.788403511E-1,-2.703053713E0,9.682151794E0
1.702167140E0,-5.602431893E-1,-2.729389906E0,9.674968719E0
1.712237886E0,-5.195417404E-1,-2.794033289E0,9.844957352E0
1.722278114E0,-5.458779931E-1,-2.741360903E0,9.873687744E0
1.732348860E0,-5.698199868E-1,-2.700659513E0,9.785101891E0
1.742389088E0,-5.841852427E-1,-2.703053713E0,9.708487511E0
1.752459834E0,-5.458779931E-1,-2.667140722E0,9.677363396E0
1.762530580E0,-5.698199868E-1,-2.643198729E0,9.610325813E0
1.772570809E0,-5.027823448E-1,-2.631227732E0,9.591172218E0
1.782641555E0,-5.410895944E-1,-2.657563925E0,9.490615845E0
1.792681783E0,-5.602431893E-1,-2.693476915E0,9.442731857E0
1.802752529E0,-5.698199868E-1,-2.748543501E0,9.449913979E0
1.812792757E0,-5.793967843E-1,-2.796427488E0,9.514557838E0
1.822863503E0,-5.530605912E-1,-2.832340717E0,9.564835548E0
1.832903731E0,-5.578489900E-1,-2.865859509E0,9.572018623E0
1.842974478E0,-5.793967843E-1,-2.889801502E0,9.548076630E0
1.853014706E0,-5.865794420E-1,-2.920926094E0,9.612719536E0
1.863085452E0,-5.841852427E-1,-2.940079689E0,9.646238327E0
1.873125680E0,-5.602431893E-1,-2.997540474E0,9.536105156E0
1.883165908E0,-4.692635238E-1,-3.043030262E0,9.267954826E0
1.893236654E0,-4.860229492E-1,-3.081337690E0,9.076418877E0
1.903276883E0,-5.099649429E-1,-3.122039080E0,9.131484985E0
1.913347629E0,-5.482721925E-1,-3.196259260E0,9.351752281E0
1.923387857E0,-5.506663918E-1,-3.232172251E0,9.538499832E0
1.933458603E0,-5.219359994E-1,-3.275267839E0,9.583989143E0
1.943498831E0,-5.051765442E-1,-3.303998232E0,9.567230225E0
1.953569577E0,-5.626373887E-1,-3.323152065E0,9.500192642E0
1.963609806E0,-5.458779931E-1,-3.332728863E0,9.409213066E0
1.973680552E0,-5.913678408E-1,-3.313575268E0,9.303867340E0
1.983720780E0,-5.578489900E-1,-3.299209833E0,9.287108421E0
1.993791526E0,-6.200982332E-1,-3.301604033E0,9.385271072E0
2.003831754E0,-6.224924326E-1,-3.284844637E0,9.423578262E0
2.013902500E0,-6.464344859E-1,-3.289633036E0,9.421183586E0
2.023973245E0,-6.296750307E-1,-3.287238836E0,9.428366661E0
2.034013474E0,-6.392518282E-1,-3.320757866E0,9.469067574E0
2.044084220E0,-6.440402865E-1,-3.327940464E0,9.464279175E0
2.054124449E0,-5.865794420E-1,-3.315969467E0,9.380482674E0
2.064195194E0,-5.722141862E-1,-3.339911461E0,9.342175484E0
2.074235423E0,-5.985504389E-1,-3.337517262E0,9.502586365E0
2.084306168E0,-5.985504389E-1,-3.306392431E0,9.818621635E0
2.094346397E0,-6.105214357E-1,-3.277662039E0,9.967061996E0
2.104417142E0,-5.746083856E-1,-3.275267839E0,9.871294022E0
2.114457372E0,-5.722141862E-1,-3.294421434E0,9.339780807E0
2.124528117E0,-5.195417404E-1,-3.318363667E0,8.650250435E0
2.134568346E0,-5.147533417E-1,-3.287238836E0,8.552088737E0
2.144608574E0,-4.596867263E-1,-3.265691042E0,8.951920509E0
2.154679320E0,-4.836287498E-1,-3.258508444E0,9.354146004E0
2.164719548E0,-5.123591423E-1,-3.272873640E0,9.643844604E0
2.174790294E0,-4.692635238E-1,-3.292027235E0,9.651026726E0
2.184830523E0,-4.884171486E-1,-3.330334663E0,9.385271072E0
2.194901268E0,-4.477157295E-1,-3.390189648E0,9.301473618E0
2.204941497E0,-4.860229492E-1,-3.394978046E0,9.308655739E0
2.215012242E0,-4.692635238E-1,-3.428496838E0,9.176975250E0
2.225052471E0,-4.692635238E-1,-3.464409828E0,9.198522568E0
2.235123216E0,-5.075707436E-1,-3.462015629E0,9.107542992E0
2.245163446E0,-4.740519226E-1,-3.502717018E0,9.205705643E0
2.255234191E0,-5.482721925E-1,-3.495534420E0,9.279925346E0
2.265274420E0,-4.668693244E-1,-3.536235809E0,9.289502144E0
2.275345165E0,-5.075707436E-1,-3.521870613E0,9.334992409E0
2.285385394E0,-4.812345505E-1,-3.521870613E0,9.246406555E0
2.295456139E0,-4.740519226E-1,-3.538630009E0,9.179368973E0
2.305496369E0,-4.453215301E-1,-3.555389643E0,9.208099365E0
2.315567114E0,-4.932055473E-1,-3.567360640E0,9.277531624E0
2.325607343E0,-5.075707436E-1,-3.581725836E0,9.303867340E0
2.335678088E0,-5.003881454E-1,-3.600879431E0,9.222464561E0
2.345718317E0,-5.051765442E-1,-3.615244627E0,9.129091263E0
2.355789062E0,-4.764461517E-1,-3.555389643E0,9.119514465E0
2.365829291E0,-4.955997467E-1,-3.562572241E0,9.148244858E0
2.375900036E0,-5.123591423E-1,-3.576937437E0,9.301473618E0
2.385940266E0,-4.884171486E-1,-3.610456228E0,9.421183586E0
2.396011011E0,-4.548983276E-1,-3.584120035E0,9.349357605E0
2.406051240E0,-4.022258818E-1,-3.603273630E0,9.169792175E0
2.416121985E0,-4.022258818E-1,-3.562572241E0,9.093177795E0
2.426162214E0,-4.213795066E-1,-3.533841610E0,9.181763649E0
2.436232959E0,-4.429273009E-1,-3.493140221E0,9.275136948E0
2.446273188E0,-4.692635238E-1,-3.488351822E0,9.263166428E0
2.456343934E0,-5.147533417E-1,-3.488351822E0,9.311050415E0
2.466384162E0,-5.195417404E-1,-3.500322819E0,9.504981041E0
2.476424391E0,-5.171475410E-1,-3.476380825E0,9.765948296E0
2.486495136E0,-5.291185975E-1,-3.507505417E0,9.667786598E0
2.496535365E0,-5.027823448E-1,-3.517082214E0,9.308655739E0
2.506606110E0,-3.974374831E-1,-3.452438831E0,9.026140213E0
2.516646340E0,-4.070142806E-1,-3.414131641E0,8.956708908E0
2.526717085E0,-4.357447028E-1,-3.416525841E0,9.162610054E0
2.536757314E0,-4.716577232E-1,-3.440467834E0,9.464279175E0
2.546828059E0,-4.501099288E-1,-3.428496838E0,9.610325813E0
2.556868288E0,-4.692635238E-1,-3.445256233E0,9.560047150E0
2.566939033E0,-4.644751251E-1,-3.430891037E0,9.342175484E0
2.576979263E0,-4.740519226E-1,-3.414131641E0,9.181763649E0
2.587050008E0,-4.525041282E-1,-3.385401249E0,9.112331390E0
2.597090237E0,-4.405331016E-1,-3.378218651E0,9.155426979E0
2.607130465E0,-3.974374831E-1,-3.394978046E0,9.229647636E0
2.617201211E0,-4.046200812E-1,-3.368641853E0,9.299078941E0
2.627241439E0,-4.333505034E-1,-3.344699860E0,9.311050415E0
2.637312186E0,-4.285621047E-1,-3.320757866E0,9.315838814E0
2.647352414E0,-4.070142806E-1,-3.308786631E0,9.272743225E0
2.657423160E0,-4.141969085E-1,-3.256114244E0,9.332598686E0
2.667463388E0,-3.854664862E-1,-3.246537447E0,9.349357605E0
2.677534134E0,-3.567360640E-1,-3.213018656E0,9.332598686E0
2.687574362E0,-3.423708379E-1,-3.193865061E0,9.402029991E0
2.697645108E0,-3.256114423E-1,-3.172317266E0,9.387664795E0
2.707685337E0,-3.016694188E-1,-3.119644880E0,9.373299599E0
2.717756082E0,-3.040636182E-1,-3.078943491E0,9.346963882E0
2.727796311E0,-3.280056417E-1,-3.031059265E0,9.394847870E0
2.737867056E0,-3.184288144E-1,-3.031059265E0,9.488221169E0
2.747907285E0,-3.375824392E-1,-2.971204281E0,9.519346237E0
2.757978030E0,-3.543418646E-1,-2.959233284E0,9.478644371E0
2.768018260E0,-3.303998411E-1,-2.954444885E0,9.421183586E0
2.778058488E0,-3.375824392E-1,-2.961627483E0,9.334992409E0
2.788129234E0,-3.543418646E-1,-2.949656487E0,9.385271072E0
2.798169462E0,-3.351882398E-1,-2.930502892E0,9.437943459E0
2.808240208E0,-3.447650373E-1,-2.892195702E0,9.461885452E0
2.818280436E0,-3.591302633E-1,-2.901772499E0,9.418789864E0
2.828351182E0,-3.256114423E-1,-2.892195702E0,9.428366661E0
2.838391411E0,-3.615244627E-1,-2.906560898E0,9.591172218E0
2.848462157E0,-3.423708379E-1,-2.865859509E0,9.694122314E0
2.858502385E0,-3.471592367E-1,-2.750937700E0,9.799467087E0
2.868573131E0,-2.849099934E-1,-2.755726099E0,9.567230225E0
2.878613359E0,-3.016694188E-1,-2.798821688E0,9.404424667E0
2.888684105E0,-2.992752194E-1,-2.770091295E0,9.406818390E0
2.898724334E0,-3.016694188E-1,-2.688688517E0,9.461885452E0
2.908795080E0,-3.351882398E-1,-2.614468336E0,9.519346237E0
2.918835308E0,-3.327940404E-1,-2.576161146E0,9.631873131E0
2.928875536E0,-3.232172430E-1,-2.545036316E0,9.715670586E0
2.938946282E0,-3.687070608E-1,-2.573766708E0,9.694122314E0
2.948986510E0,-3.663128614E-1,-2.535459518E0,9.641449928E0
2.959057256E0,-3.687070608E-1,-2.473210335E0,9.531316757E0
2.969097485E0,-3.687070608E-1,-2.389413357E0,9.311050415E0
2.979168231E0,-3.806780577E-1,-2.413355350E0,9.330204010E0
2.989208459E0,-3.088520169E-1,-2.549824715E0,9.581595421E0
2.999279205E0,-3.663128614E-1,-2.533065319E0,9.677363396E0
3.009319433E0,-3.399766386E-1,-2.439691544E0,9.701305389E0
3.019390179E0,-3.208230138E-1,-2.406172752E0,9.730035782E0
3.029430408E0,-3.543418646E-1,-2.384624958E0,9.718064308E0
3.039501154E0,-3.256114423E-1,-2.348711967E0,9.703699112E0
3.049541382E0,-3.160346150E-1,-2.272097349E0,9.698910713E0
3.059612128E0,-3.256114423E-1,-2.243366957E0,9.691728592E0
3.069652356E0,-3.711012602E-1,-2.207453966E0,9.634267807E0
3.079723102E0,-3.974374831E-1,-2.219424963E0,9.557653427E0
3.089763330E0,-3.806780577E-1,-2.173935175E0,9.653421402E0
3.099834076E0,-3.447650373E-1,-2.111685991E0,9.809044838E0
3.109874305E0,-3.303998411E-1,-2.078166962E0,9.959878922E0
3.119914533E0,-2.944868207E-1,-2.063801765E0,9.943120003E0
3.129985279E0,-2.992752194E-1,-2.054224968E0,9.727641106E0
3.140025507E0,-2.825157940E-1,-2.032677174E0,9.414001465E0
3.150096253E0,-2.920926213E-1,-1.980004787E0,9.260771751E0
3.160136482E0,-3.375824392E-1,-1.929726601E0,9.337387085E0
3.170207228E0,-3.280056417E-1,-1.898601890E0,9.624691010E0
3.180247456E0,-3.088520169E-1,-1.881842494E0,1.011310768E1
3.190318202E0,-3.184288144E-1,-1.833958507E0,1.015141487E1
3.200358430E0,-2.370259613E-1,-1.810016513E0,1.018972206E1
3.210429176E0,-3.256114423E-1,-1.759738207E0,1.008916569E1
3.220469404E0,-2.801215947E-1,-1.719036818E0,9.991003990E0
3.230509633E0,-3.471592367E-1,-1.697489023E0,9.914389610E0
3.240580379E0,-3.303998411E-1,-1.647210717E0,9.780313492E0
3.250651125E0,-3.303998411E-1,-1.623268723E0,9.765948296E0
3.260691353E0,-3.519476354E-1,-1.546654344E0,9.672574997E0
3.270731581E0,-2.944868207E-1,-1.517923832E0,9.629479408E0
3.280802327E0,-3.423708379E-1,-1.474828243E0,9.595960617E0
3.290842556E0,-3.232172430E-1,-1.438915253E0,9.600749016E0
3.300913302E0,-3.519476354E-1,-1.398213744E0,9.591172218E0
3.310953530E0,-3.663128614E-1,-1.412579060E0,9.622296333E0
3.321024276E0,-3.639186621E-1,-1.395819545E0,9.674968719E0
3.331064504E0,-3.423708379E-1,-1.398213744E0,9.821015358E0
3.341135250E0,-3.303998411E-1,-1.381454349E0,9.904812813E0
3.351175478E0,-3.471592367E-1,-1.400607944E0,9.991003990E0
3.361246224E0,-3.280056417E-1,-1.419761658E0,9.926360130E0
3.371286453E0,-3.351882398E-1,-1.441309452E0,9.734824181E0
3.381357199E0,-3.303998411E-1,-1.426944256E0,9.622296333E0
3.391397427E0,-3.423708379E-1,-1.403002143E0,9.634267807E0
3.401468173E0,-3.423708379E-1,-1.376665950E0,9.758766174E0
3.411508401E0,-3.040636182E-1,-1.328781962E0,9.847352028E0
3.421579147E0,-2.849099934E-1,-1.285686255E0,9.856928825E0
3.431619376E0,-2.944868207E-1,-1.240196466E0,9.830592155E0
3.441690122E0,-2.777273953E-1,-1.237802267E0,9.818621635E0
3.451730350E0,-2.873041928E-1,-1.223437071E0,9.806650162E0
3.461801096E0,-2.896983922E-1,-1.177947283E0,9.799467087E0
3.471841324E0,-3.064578176E-1,-1.094150186E0,9.835380554E0
3.481912070E0,-3.088520169E-1,-1.070208192E0,9.856928825E0
3.491952299E0,-3.447650373E-1,-1.019929886E0,9.888052940E0
3.502023045E0,-3.423708379E-1,-9.864110947E-1,9.895236015E0
3.512063273E0,-3.232172430E-1,-9.888052940E-1,9.926360130E0
3.522134019E0,-3.256114423E-1,-9.600749016E-1,9.935936928E0
3.532174247E0,-3.351882398E-1,-9.241618514E-1,9.943120003E0
3.542214475E0,-3.112462163E-1,-9.026140571E-1,9.923966408E0
3.552285221E0,-3.256114423E-1,-8.547300100E-1,9.890447617E0
3.562325450E0,-3.136404157E-1,-8.355764151E-1,9.840168953E0
3.572396196E0,-3.303998411E-1,-7.613561153E-1,9.758766174E0
3.582436424E0,-3.423708379E-1,-7.302315235E-1,9.780313492E0
3.592507170E0,-3.687070608E-1,-7.445967197E-1,9.842563629E0
3.602547398E0,-3.663128614E-1,-7.781155705E-1,9.864110947E0
3.612618144E0,-3.495534360E-1,-7.948749661E-1,9.856928825E0
3.622658373E0,-3.758896589E-1,-8.188169599E-1,9.799467087E0
3.632729119E0,-3.351882398E-1,-8.212111592E-1,9.737217903E0
3.642769347E0,-3.543418646E-1,-8.188169599E-1,9.765948296E0
3.652840093E0,-3.208230138E-1,-7.924807668E-1,9.873687744E0
3.662880321E0,-3.088520169E-1,-7.852981687E-1,9.952696800E0
3.672951067E0,-3.208230138E-1,-7.589619160E-1,9.921571732E0
3.682991295E0,-3.351882398E-1,-7.445967197E-1,9.928754807E0
3.693062041E0,-3.495534360E-1,-7.422025204E-1,9.923966408E0
3.703102270E0,-3.040636182E-1,-7.206547260E-1,9.911994934E0
3.713173016E0,-2.992752194E-1,-7.015010715E-1,9.892841339E0
3.723213244E0,-3.112462163E-1,-7.206547260E-1,9.832986832E0
3.733283990E0,-3.112462163E-1,-6.943184733E-1,9.823410034E0
3.743324218E0,-3.327940404E-1,-6.703764796E-1,9.780313492E0
3.753394964E0,-3.375824392E-1,-6.105214357E-1,9.753977776E0
3.763435193E0,-3.184288144E-1,-6.033388376E-1,9.816226959E0
3.773505939E0,-3.232172430E-1,-5.793967843E-1,9.890447617E0
3.783546167E0,-3.088520169E-1,-5.841852427E-1,9.964667320E0
3.793586395E0,-3.184288144E-1,-5.410895944E-1,1.001494598E1
3.803657141E0,-3.112462163E-1,-5.554547906E-1,9.988609314E0
3.813697369E0,-3.184288144E-1,-5.003881454E-1,9.938331604E0
3.823768115E0,-2.896983922E-1,-4.716577232E-1,9.926360130E0
3.833808344E0,-2.657563984E-1,-4.309563041E-1,9.852140427E0
3.843848572E0,-2.753331959E-1,-3.878606856E-1,9.763554573E0
3.853919318E0,-2.968810201E-1,-4.189853072E-1,9.706093788E0
3.863959546E0,-2.992752194E-1,-4.237737060E-1,9.785101891E0
3.874030292E0,-2.849099934E-1,-3.854664862E-1,1.000058079E1
3.884070521E0,-2.849099934E-1,-3.615244627E-1,1.002931118E1
3.894141267E0,-2.873041928E-1,-3.902548850E-1,9.832986832E0
3.904181495E0,-2.992752194E-1,-4.165911078E-1,9.610325813E0
3.914221723E0,-2.801215947E-1,-4.165911078E-1,9.576807022E0
3.924292469E0,-2.777273953E-1,-4.189853072E-1,9.722852707E0
3.934332697E0,-2.753331959E-1,-4.213795066E-1,9.962273598E0
3.944403443E0,-2.585737705E-1,-3.734954596E-1,1.020887566E1
3.954443672E0,-2.801215947E-1,-3.256114423E-1,1.025436592E1
3.964514418E0,-2.801215947E-1,-2.729389966E-1,1.017056847E1
3.974554646E0,-2.729389966E-1,-2.346317619E-1,1.002212811E1
3.984625392E0,-3.136404157E-1,-2.274491638E-1,9.873687744E0
3.994665620E0,-3.256114423E-1,-1.915361285E-1,9.823410034E0
4.004705849E0,-3.208230138E-1,-1.915361285E-1,9.787496567E0
4.014776595E0,-3.064578176E-1,-1.699883193E-1,9.801861763E0
4.024816824E0,-2.681505978E-1,-1.364694983E-1,9.806650162E0
4.034887569E0,-2.537853718E-1,-1.316810995E-1,9.794678688E0
4.044927798E0,-2.585737705E-1,-1.436520964E-1,9.842563629E0
4.054998543E0,-2.705447972E-1,-1.747767180E-1,9.880870819E0
4.065038772E0,-2.346317619E-1,-2.035071403E-1,9.890447617E0
4.075079001E0,-2.370259613E-1,-2.130839527E-1,9.883264542E0
4.085149747E0,-2.418143749E-1,-2.035071403E-1,9.888052940E0
4.095189975E0,-2.729389966E-1,-1.891419291E-1,9.895236015E0
4.105260721E0,-2.896983922E-1,-2.106897533E-1,9.907206535E0
4.115300949E0,-3.064578176E-1,-1.771709323E-1,9.916783333E0
4.125371695E0,-3.064578176E-1,-1.747767180E-1,9.880870819E0
4.135411923E0,-2.873041928E-1,-1.747767180E-1,9.907206535E0
4.145452152E0,-2.896983922E-1,-1.651999205E-1,9.856928825E0
4.155522898E0,-2.825157940E-1,-1.460463107E-1,9.813833237E0
4.165563126E0,-2.753331959E-1,-1.412578970E-1,9.816226959E0
4.175633872E0,-2.633621991E-1,-1.340752989E-1,9.849745750E0
4.185674100E0,-3.112462163E-1,-1.316810995E-1,9.909601212E0
4.195744846E0,-2.920926213E-1,-1.149216816E-1,9.921571732E0
4.205785075E0,-2.537853718E-1,-9.337386489E-2,1.006282997E1
4.215855821E0,-2.849099934E-1,-8.140286058E-2,9.907206535E0
4.225896049E0,-2.322375625E-1,-8.619125932E-2,1.000058079E1
4.235966795E0,-2.944868207E-1,-8.858546615E-2,9.935936928E0
4.246007023E0,-2.513911724E-1,-7.661445439E-2,9.933543205E0
4.256047251E0,-2.873041928E-1,-4.309562966E-2,9.988609314E0
4.266117997E0,-3.303998411E-1,-1.915361360E-2,9.909601212E0
4.276158226E0,-2.849099934E-1,-1.675941236E-2,1.000297451E1
4.286228972E0,-2.801215947E-1,-5.746084079E-2,9.919178009E0
4.296269200E0,-2.585737705E-1,-5.506663769E-2,9.967061996E0
4.306339946E0,-2.729389966E-1,-8.379705995E-2,9.940725327E0
4.316380174E0,-2.849099934E-1,-8.619125932E-2,9.880870819E0
4.326450920E0,-2.944868207E-1,-1.244984865E-1,9.885659218E0
4.336491149E0,-3.208230138E-1,-1.532289088E-1,9.868899345E0
4.346561895E0,-3.639186621E-1,-1.915361285E-1,9.873687744E0
4.356602123E0,-3.567360640E-1,-2.059013397E-1,9.926360130E0
4.366642351E0,-3.519476354E-1,-2.561795712E-1,9.957485199E0
4.376713097E0,-3.758896589E-1,-2.944868207E-1,9.904812813E0
4.386753325E0,-3.830722570E-1,-3.758896589E-1,9.799467087E0
4.396824071E0,-3.543418646E-1,-4.213795066E-1,9.672574997E0
4.406864300E0,-4.501099288E-1,-4.788403511E-1,9.591172218E0
4.416935046E0,-3.064578176E-1,-5.865794420E-1,9.461885452E0
4.426975274E0,-3.854664862E-1,-6.248866320E-1,9.617507935E0
4.437015502E0,-3.734954596E-1,-6.200982332E-1,9.813833237E0
4.447086248E0,-3.663128614E-1,-5.841852427E-1,1.006043530E1
4.457126477E0,-3.902548850E-1,-5.865794420E-1,1.017535686E1
4.467197223E0,-3.974374831E-1,-6.033388376E-1,1.014902115E1
4.477237451E0,-4.118026793E-1,-6.368576288E-1,1.000536919E1
4.487308197E0,-3.830722570E-1,-6.799532771E-1,9.821015358E0
4.497348425E0,-3.974374831E-1,-7.230489254E-1,9.710882187E0
4.507419171E0,-3.758896589E-1,-7.589619160E-1,9.775525093E0
4.517459399E0,-3.878606856E-1,-6.919242740E-1,9.804255486E0
4.527499628E0,-4.932055473E-1,-6.919242740E-1,1.009634876E1
4.537570374E0,-3.208230138E-1,-6.416460276E-1,1.007480049E1
4.547610602E0,-3.663128614E-1,-6.488286853E-1,9.945513725E0
4.557681348E0,-3.926490843E-1,-6.416460276E-1,9.890447617E0
4.567721576E0,-4.668693244E-1,-6.847416759E-1,9.844957352E0
4.577792322E0,-4.094084799E-1,-7.445967197E-1,9.799467087E0
4.587832551E0,-4.285621047E-1,-7.972691655E-1,9.789890289E0
4.597903297E0,-4.453215301E-1,-8.379706144E-1,9.773131371E0
4.607943525E0,-4.022258818E-1,-8.619126081E-1,9.914389610E0
4.618014271E0,-4.118026793E-1,-8.738836050E-1,1.005085850E1
4.628054499E0,-3.878606856E-1,-9.337386489E-1,9.955090523E0
4.638125245E0,-4.237737060E-1,-9.864110947E-1,9.742006302E0
4.648165473E0,-4.237737060E-1,-1.015141487E0,9.651026726E0
4.658236220E0,-4.381389022E-1,-1.091755986E0,9.639056206E0
4.668276448E0,-4.453215301E-1,-1.154005170E0,9.670180321E0
4.678347194E0,-4.788403511E-1,-1.206677675E0,9.840168953E0
4.688387422E0,-4.477157295E-1,-1.233013868E0,9.938331604E0
4.698458168E0,-4.740519226E-1,-1.266532660E0,9.979032516E0
4.708498396E0,-4.692635238E-1,-1.292868972E0,9.888052940E0
4.718569142E0,-4.692635238E-1,-1.328781962E0,9.770736694E0
4.728609371E0,-4.070142806E-1,-1.412579060E0,9.734824181E0
4.738680117E0,-3.758896589E-1,-1.453280449E0,9.677363396E0
4.748720345E0,-4.333505034E-1,-1.501164436E0,9.682151794E0
4.758791091E0,-4.213795066E-1,-1.534683347E0,9.809044838E0
4.768831319E0,-4.908113480E-1,-1.525106430E0,9.909601212E0
4.778902065E0,-4.501099288E-1,-1.486799240E0,9.935936928E0
4.788942294E0,-4.932055473E-1,-1.462857246E0,9.916783333E0
4.799013040E0,-5.243301988E-1,-1.460463047E0,9.840168953E0
4.809053268E0,-5.147533417E-1,-1.462857246E0,9.773131371E0
4.819093496E0,-5.746083856E-1,-1.450886250E0,9.725247383E0
4.829164242E0,-5.027823448E-1,-1.436521053E0,9.749189377E0
4.839204470E0,-5.339069963E-1,-1.472434044E0,9.773131371E0
4.849275216E0,-4.836287498E-1,-1.486799240E0,9.861717224E0
4.859345962E0,-5.123591423E-1,-1.479616642E0,9.871294022E0
4.869386191E0,-5.554547906E-1,-1.493981838E0,9.840168953E0
4.879456937E0,-5.267243981E-1,-1.501164436E0,9.809044838E0
4.889497165E0,-5.291185975E-1,-1.584961534E0,9.722852707E0
4.899567911E0,-5.410895944E-1,-1.649604917E0,9.696516991E0
4.909608139E0,-4.692635238E-1,-1.656787634E0,9.677363396E0
4.919678885E0,-4.716577232E-1,-1.683123827E0,9.670180321E0
4.929719114E0,-4.979939461E-1,-1.747767210E0,9.725247383E0
4.939789860E0,-5.027823448E-1,-1.742978811E0,9.708487511E0
4.949830088E0,-5.123591423E-1,-1.731007814E0,9.682151794E0
4.959900834E0,-5.051765442E-1,-1.750161409E0,9.679757118E0
4.969941062E0,-4.932055473E-1,-1.769315004E0,9.751583099E0
4.980011808E0,-4.884171486E-1,-1.836352706E0,9.816226959E0
4.990052036E0,-4.979939461E-1,-1.869871497E0,9.785101891E0
5.000122783E0,-5.003881454E-1,-1.898601890E0,9.739612579E0
5.010163011E0,-5.075707436E-1,-1.922544003E0,9.773131371E0
5.020233757E0,-4.979939461E-1,-1.946485996E0,9.720458984E0
5.030273985E0,-5.147533417E-1,-1.965639591E0,9.670180321E0
5.040344731E0,-5.075707436E-1,-1.968033791E0,9.624691010E0
5.050415477E0,-4.788403511E-1,-1.958456993E0,9.593565941E0
5.060455705E0,-4.884171486E-1,-1.970427990E0,9.588777542E0
5.070526452E0,-5.291185975E-1,-2.001552582E0,9.655815125E0
5.080566680E0,-5.171475410E-1,-2.059013367E0,9.727641106E0
5.090637426E0,-5.315127969E-1,-2.080561161E0,9.727641106E0
5.100677654E0,-5.243301988E-1,-2.116474390E0,9.660603523E0
5.110748400E0,-4.908113480E-1,-2.121262789E0,9.612719536E0
5.120819145E0,-5.315127969E-1,-2.123656988E0,9.579200745E0
5.130859374E0,-5.267243981E-1,-2.142810583E0,9.555258751E0
5.140930119E0,-5.147533417E-1,-2.161964178E0,9.569623947E0
5.150970349E0,-5.171475410E-1,-2.166752577E0,9.667786598E0
5.161041094E0,-5.099649429E-1,-2.193088770E0,9.787496567E0
5.171081323E0,-5.099649429E-1,-2.195482969E0,9.773131371E0
5.181152068E0,-4.884171486E-1,-2.171540976E0,9.670180321E0
5.191222814E0,-5.602431893E-1,-2.183511972E0,9.495404243E0
5.201263042E0,-5.099649429E-1,-2.209848166E0,9.428366661E0
5.211333788E0,-5.386953950E-1,-2.226607561E0,9.478644371E0
5.221374017E0,-4.908113480E-1,-2.252943754E0,9.569623947E0
5.231444763E0,-4.525041282E-1,-2.331952572E0,9.744400978E0
5.241515509E0,-4.932055473E-1,-2.372653961E0,9.713275909E0
5.251555737E0,-4.333505034E-1,-2.415749550E0,9.672574997E0
5.261626483E0,-5.003881454E-1,-2.391807556E0,9.718064308E0
5.271666711E0,-4.979939461E-1,-2.396595955E0,9.718064308E0
5.281737457E0,-5.003881454E-1,-2.415749550E0,9.651026726E0
5.291777686E0,-4.620809257E-1,-2.422932148E0,9.380482674E0
5.301848432E0,-5.051765442E-1,-2.437297344E0,9.306262016E0
5.311919178E0,-4.692635238E-1,-2.463633537E0,9.416395187E0
5.321959406E0,-5.315127969E-1,-2.480392933E0,9.598354340E0
5.332030152E0,-5.386953950E-1,-2.454056740E0,9.689333916E0
5.342070380E0,-4.740519226E-1,-2.430114746E0,9.799467087E0
5.352141126E0,-4.836287498E-1,-2.437297344E0,9.789890289E0
5.362181355E0,-5.195417404E-1,-2.473210335E0,9.698910713E0
5.372252101E0,-5.243301988E-1,-2.475604534E0,9.579200745E0
5.382292329E0,-5.267243981E-1,-2.494758129E0,9.524134636E0
5.392363075E0,-4.860229492E-1,-2.513911724E0,9.519346237E0
5.402403303E0,-4.979939461E-1,-2.554613113E0,9.497797966E0
5.412474049E0,-5.027823448E-1,-2.564189911E0,9.536105156E0
5.422514277E0,-5.243301988E-1,-2.523488522E0,9.552865028E0
5.432585023E0,-5.363011956E-1,-2.523488522E0,9.550470352E0
5.442625252E0,-5.482721925E-1,-2.547430515E0,9.576807022E0
5.452695997E0,-5.339069963E-1,-2.595314741E0,9.598354340E0
5.462736226E0,-5.530605912E-1,-2.674323320E0,9.648633003E0
5.472806971E0,-5.410895944E-1,-2.717418909E0,9.588777542E0
5.482847200E0,-5.027823448E-1,-2.772485495E0,9.507374763E0
5.492917945E0,-5.195417404E-1,-2.770091295E0,9.397241592E0
5.502988691E0,-5.051765442E-1,-2.808398485E0,9.366117477E0
5.513028920E0,-5.027823448E-1,-2.815581083E0,9.409213066E0
5.523069149E0,-5.099649429E-1,-2.858676910E0,9.466673851E0
5.533139894E0,-5.171475410E-1,-2.887407303E0,9.493009567E0
5.543210640E0,-5.339069963E-1,-2.901772499E0,9.476250648E0
5.553250868E0,-4.979939461E-1,-2.863465309E0,9.461885452E0
5.563321614E0,-4.740519226E-1,-2.827552319E0,9.449913979E0
5.573361843E0,-4.740519226E-1,-2.782062292E0,9.457097054E0
5.583432589E0,-5.027823448E-1,-2.772485495E0,9.473855972E0
5.593472817E0,-5.027823448E-1,-2.806004286E0,9.569623947E0
5.603543563E0,-5.075707436E-1,-2.829946518E0,9.533711433E0
5.613583791E0,-4.884171486E-1,-2.839523315E0,9.440337181E0
5.623654537E0,-4.932055473E-1,-2.839523315E0,9.387664795E0
5.633694765E0,-5.123591423E-1,-2.851494312E0,9.461885452E0
5.643765512E0,-5.051765442E-1,-2.863465309E0,9.595960617E0
5.653805740E0,-5.243301988E-1,-2.861071110E0,9.545681953E0
5.663876486E0,-5.195417404E-1,-2.889801502E0,9.404424667E0
5.673947232E0,-5.386953950E-1,-2.901772499E0,9.344569206E0
5.683987460E0,-5.195417404E-1,-2.911349297E0,9.536105156E0
5.694058206E0,-5.195417404E-1,-2.920926094E0,9.713275909E0
5.704098434E0,-5.123591423E-1,-2.968810081E0,9.684545517E0
5.714169180E0,-5.243301988E-1,-2.999934673E0,9.473855972E0
5.724209409E0,-4.908113480E-1,-3.021482468E0,9.203310966E0
5.734249637E0,-5.027823448E-1,-2.997540474E0,9.124302864E0
5.744320383E0,-5.147533417E-1,-3.016694069E0,9.241618156E0
5.754360611E0,-5.554547906E-1,-3.047818661E0,9.464279175E0
5.764431357E0,-5.243301988E-1,-3.062183857E0,9.548076630E0
5.774471586E0,-5.075707436E-1,-3.062183857E0,9.454702377E0
5.784542332E0,-5.003881454E-1,-3.062183857E0,9.308655739E0
5.794582560E0,-5.003881454E-1,-3.052607059E0,9.200917244E0
5.804653306E0,-5.075707436E-1,-3.059789658E0,9.220070839E0
5.814693534E0,-5.123591423E-1,-3.066972494E0,9.279925346E0
5.824764280E0,-4.788403511E-1,-3.095702887E0,9.440337181E0
5.834804508E0,-5.171475410E-1,-3.093308687E0,9.445125580E0
5.844875254E0,-4.668693244E-1,-3.062183857E0,9.402029991E0
5.854946001E0,-5.339069963E-1,-3.002328873E0,9.478644371E0
5.864986229E0,-5.267243981E-1,-2.964021683E0,9.399636269E0
5.875056975E0,-5.051765442E-1,-2.964021683E0,9.318233490E0
5.885097203E0,-4.716577232E-1,-2.987963676E0,9.267954826E0
5.895167949E0,-4.477157295E-1,-2.997540474E0,9.301473618E0
5.905208177E0,-4.836287498E-1,-2.978386879E0,9.560047150E0
5.915278923E0,-5.219359994E-1,-2.959233284E0,9.629479408E0
5.925319152E0,-5.219359994E-1,-2.925714493E0,9.490615845E0
5.935389898E0,-3.998316824E-1,-2.870647907E0,9.263166428E0
5.945430126E0,-3.567360640E-1,-2.856282711E0,9.169792175E0
5.955500872E0,-3.902548850E-1,-2.829946518E0,9.234436035E0
5.965541100E0,-4.285621047E-1,-2.798821688E0,9.454702377E0
5.975611846E0,-4.141969085E-1,-2.791639090E0,9.696516991E0
5.985652075E0,-3.974374831E-1,-2.772485495E0,9.861717224E0
5.995722821E0,-4.309563041E-1,-2.731784105E0,9.866505623E0
6.005763049E0,-4.429273009E-1,-2.705447912E0,9.672574997E0
6.015833795E0,-4.237737060E-1,-2.643198729E0,9.495404243E0
6.025874023E0,-4.213795066E-1,-2.621650934E0,9.318233490E0
6.035944769E0,-3.878606856E-1,-2.631227732E0,9.289502144E0
6.045984997E0,-3.830722570E-1,-2.628833532E0,9.320627213E0
6.056055744E0,-3.854664862E-1,-2.662352324E0,9.380482674E0
6.066095972E0,-3.687070608E-1,-2.659958124E0,9.579200745E0
6.076166718E0,-4.429273009E-1,-2.650381327E0,9.639056206E0
6.086206946E0,-4.357447028E-1,-2.628833532E0,9.581595421E0
6.096277692E0,-4.141969085E-1,-2.638410330E0,9.550470352E0
6.106317920E0,-4.381389022E-1,-2.604891539E0,9.509769440E0
6.116388666E0,-3.950432837E-1,-2.588132143E0,9.528923035E0
6.126428895E0,-3.926490843E-1,-2.600103140E0,9.572018623E0
6.136499641E0,-3.734954596E-1,-2.576161146E0,9.639056206E0
6.146539869E0,-3.687070608E-1,-2.523488522E0,9.651026726E0
6.156610615E0,-3.303998411E-1,-2.494758129E0,9.634267807E0
6.166650843E0,-3.639186621E-1,-2.475604534E0,9.634267807E0
6.176721588E0,-3.423708379E-1,-2.475604534E0,9.533711433E0
6.186761818E0,-3.208230138E-1,-2.420537949E0,9.524134636E0
6.196832563E0,-3.495534360E-1,-2.384624958E0,9.416395187E0
6.206872792E0,-2.968810201E-1,-2.346317768E0,9.495404243E0
6.216943537E0,-3.351882398E-1,-2.315192938E0,9.598354340E0
6.226983766E0,-3.112462163E-1,-2.264914751E0,9.653421402E0
6.237054511E0,-3.160346150E-1,-2.248155355E0,9.813833237E0
6.247094740E0,-3.136404157E-1,-2.166752577E0,9.835380554E0
6.257165485E0,-2.920926213E-1,-2.138022184E0,9.866505623E0
6.267205715E0,-3.687070608E-1,-2.075772762E0,9.744400978E0
6.277276460E0,-3.160346150E-1,-2.066195965E0,9.528923035E0
6.287316689E0,-3.160346150E-1,-2.042253971E0,9.555258751E0
6.297387434E0,-3.160346150E-1,-2.006340981E0,9.591172218E0
6.307427663E0,-3.160346150E-1,-1.996764183E0,9.674968719E0
6.317498408E0,-3.136404157E-1,-1.996764183E0,9.703699112E0
6.327538638E0,-3.351882398E-1,-1.991975784E0,9.734824181E0
6.337578866E0,-2.920926213E-1,-1.989581585E0,9.765948296E0
6.347649612E0,-3.351882398E-1,-1.982398987E0,9.715670586E0
6.357689840E0,-3.112462163E-1,-1.977610588E0,9.753977776E0
6.367760586E0,-3.232172430E-1,-1.953668594E0,9.775525093E0
6.377800814E0,-3.064578176E-1,-1.917755604E0,9.732429504E0
6.387871560E0,-3.112462163E-1,-1.910573006E0,9.691728592E0
6.397911789E0,-3.351882398E-1,-1.893813491E0,9.686940193E0
6.407982535E0,-3.136404157E-1,-1.903390408E0,9.773131371E0
6.418022763E0,-3.208230138E-1,-1.903390408E0,9.804255486E0
6.428093509E0,-3.208230138E-1,-1.910573006E0,9.753977776E0
6.438133737E0,-3.232172430E-1,-1.893813491E0,9.667786598E0
6.448204482E0,-3.016694188E-1,-1.867477298E0,9.591172218E0
6.458244712E0,-3.303998411E-1,-1.831564307E0,9.622296333E0
6.468315457E0,-3.040636182E-1,-1.774103403E0,9.742006302E0
6.478355686E0,-3.088520169E-1,-1.790862918E0,9.890447617E0
6.488395914E0,-3.184288144E-1,-1.776497602E0,9.864110947E0
6.498466660E0,-3.447650373E-1,-1.762132406E0,9.821015358E0
6.508506888E0,-3.112462163E-1,-1.752555609E0,9.744400978E0
6.518577634E0,-2.753331959E-1,-1.747767210E0,9.701305389E0
6.528617863E0,-2.753331959E-1,-1.721431017E0,9.646238327E0
6.538688609E0,-2.849099934E-1,-1.747767210E0,9.646238327E0
6.548728837E0,-2.753331959E-1,-1.728613615E0,9.737217903E0
6.558799583E0,-2.753331959E-1,-1.690306425E0,9.897629738E0
6.568839811E0,-2.753331959E-1,-1.668758631E0,1.004367638E1
6.578910557E0,-2.729389966E-1,-1.649604917E0,9.909601212E0
6.588950786E0,-2.968810201E-1,-1.640028119E0,9.651026726E0
6.599021532E0,-3.256114423E-1,-1.647210717E0,9.402029991E0
6.609061760E0,-2.849099934E-1,-1.623268723E0,9.409213066E0
6.619132506E0,-2.944868207E-1,-1.592144132E0,9.636661530E0
6.629172734E0,-2.537853718E-1,-1.553836942E0,9.866505623E0
6.639243480E0,-2.585737705E-1,-1.513135433E0,1.010113716E1
6.649283708E0,-2.729389966E-1,-1.479616642E0,1.014902115E1
6.659354455E0,-2.657563984E-1,-1.458068848E0,1.006043530E1
6.669394683E0,-2.753331959E-1,-1.436521053E0,9.962273598E0
6.679465429E0,-2.873041928E-1,-1.438915253E0,9.816226959E0
6.689505657E0,-2.753331959E-1,-1.429338455E0,9.753977776E0
6.699545885E0,-2.968810201E-1,-1.424550056E0,9.715670586E0
6.709616631E0,-2.968810201E-1,-1.381454349E0,9.677363396E0
6.719656860E0,-2.873041928E-1,-1.345541358E0,9.658209801E0
6.729727606E0,-2.944868207E-1,-1.328781962E0,9.696516991E0
6.739767834E0,-2.681505978E-1,-1.319205165E0,9.758766174E0
6.749838580E0,-2.944868207E-1,-1.355118155E0,9.837775230E0
6.759878808E0,-3.064578176E-1,-1.369483352E0,9.885659218E0
6.769949554E0,-2.801215947E-1,-1.391031146E0,9.880870819E0
6.779989783E0,-2.705447972E-1,-1.398213744E0,9.866505623E0
6.790060529E0,-2.633621991E-1,-1.376665950E0,9.789890289E0
6.800100757E0,-2.777273953E-1,-1.376665950E0,9.749189377E0
6.810171503E0,-2.753331959E-1,-1.386242747E0,9.742006302E0
6.820211731E0,-2.920926213E-1,-1.383848548E0,9.758766174E0
6.830282477E0,-2.849099934E-1,-1.364694953E0,9.811438560E0
6.840322705E0,-2.753331959E-1,-1.362300754E0,9.787496567E0
6.850393451E0,-2.777273953E-1,-1.319205165E0,9.768342972E0
6.860433680E0,-2.681505978E-1,-1.302445769E0,9.806650162E0
6.870504426E0,-2.394201756E-1,-1.288080573E0,9.842563629E0
6.880544654E0,-2.370259613E-1,-1.309628367E0,9.854534149E0
6.890615400E0,-3.711012602E-1,-1.027112484E0,1.026394272E1
6.900655628E0,-1.364694983E-1,-1.242590666E0,9.832986832E0
6.910726374E0,-3.902548850E-1,-1.355118155E0,9.593565941E0
6.920766603E0,-1.987187415E-1,-1.235408068E0,9.751583099E0
6.930837349E0,-2.442085743E-1,-1.187524080E0,9.861717224E0
6.940877577E0,-3.064578176E-1,-1.194706678E0,9.859322548E0
6.950948323E0,-3.160346150E-1,-1.165976286E0,9.878476143E0
6.960988551E0,-3.088520169E-1,-1.130063176E0,9.911994934E0
6.971059297E0,-2.777273953E-1,-1.132457376E0,9.928754807E0
6.981099525E0,-2.801215947E-1,-1.137245774E0,9.878476143E0
6.991139754E0,-2.681505978E-1,-1.134851575E0,9.821015358E0
7.001210500E0,-2.681505978E-1,-1.101332784E0,9.782708168E0
7.011250728E0,-2.681505978E-1,-1.091755986E0,9.828198433E0
7.021321474E0,-2.896983922E-1,-1.091755986E0,9.844957352E0
7.031361702E0,-3.040636182E-1,-1.113303781E0,9.844957352E0
7.041432448E0,-2.992752194E-1,-1.108515382E0,9.854534149E0
7.051472677E0,-2.968810201E-1,-1.082179189E0,9.842563629E0
7.061543423E0,-3.088520169E-1,-1.053448796E0,9.835380554E0
7.071583651E0,-2.920926213E-1,-1.012747288E0,9.823410034E0
7.081654397E0,-2.585737705E-1,-1.070208192E0,9.818621635E0
7.091694625E0,-2.920926213E-1,-1.043871999E0,9.830592155E0
7.101765371E0,-2.873041928E-1,-9.888052940E-1,9.840168953E0
7.111805599E0,-2.896983922E-1,-1.022324085E0,9.842563629E0
7.121876346E0,-2.753331959E-1,-1.039083481E0,9.892841339E0
7.131916574E0,-2.753331959E-1,-1.060631394E0,9.888052940E0
7.141987320E0,-2.992752194E-1,-1.055842996E0,9.883264542E0
7.152027548E0,-2.777273953E-1,-1.015141487E0,9.868899345E0
7.162067776E0,-2.370259613E-1,-9.840168953E-1,9.825803757E0
7.172138522E0,-2.801215947E-1,-1.017535686E0,9.811438560E0
7.182178751E0,-2.418143749E-1,-1.012747288E0,9.852140427E0
7.192249497E0,-2.705447972E-1,-9.600749016E-1,9.883264542E0
7.202289725E0,-2.370259613E-1,-9.193734527E-1,9.847352028E0
7.212360471E0,-2.322375625E-1,-9.696516991E-1,9.890447617E0
7.222400699E0,-2.896983922E-1,-9.576807022E-1,9.780313492E0
7.232471445E0,-2.466027737E-1,-9.552865028E-1,9.804255486E0
7.242511673E0,-3.088520169E-1,-9.313444495E-1,9.789890289E0
7.252582420E0,-2.585737705E-1,-9.145850539E-1,9.818621635E0
7.262622648E0,-2.896983922E-1,-9.217676520E-1,9.892841339E0
7.272693394E0,-2.968810201E-1,-8.858546019E-1,9.840168953E0
7.282733622E0,-2.705447972E-1,-8.906430602E-1,9.904812813E0
7.292773850E0,-2.825157940E-1,-8.906430602E-1,9.864110947E0
7.302844596E0,-3.136404157E-1,-8.762778044E-1,9.864110947E0
7.312884825E0,-3.040636182E-1,-8.667010069E-1,9.878476143E0
7.322955571E0,-2.825157940E-1,-8.403648138E-1,9.900024414E0
7.332995799E0,-2.896983922E-1,-8.164227605E-1,9.842563629E0
7.343066545E0,-2.849099934E-1,-8.451532125E-1,9.847352028E0
7.353106773E0,-2.801215947E-1,-8.403648138E-1,9.830592155E0
7.363177324E0,-2.968810201E-1,-8.188169599E-1,9.878476143E0
7.373217552E0,-2.920926213E-1,-7.661445141E-1,9.923966408E0
7.383288298E0,-2.944868207E-1,-7.541735172E-1,9.979032516E0
7.393328527E0,-2.825157940E-1,-7.374141216E-1,9.971850395E0
7.403368755E0,-2.705447972E-1,-7.254431248E-1,9.921571732E0
7.413439501E0,-2.777273953E-1,-7.062895298E-1,9.873687744E0
7.423479729E0,-2.825157940E-1,-7.182605267E-1,9.962273598E0
7.433550475E0,-2.825157940E-1,-7.062895298E-1,9.991003990E0
7.443590703E0,-2.944868207E-1,-6.967126727E-1,9.947908401E0
7.453661449E0,-3.327940404E-1,-7.302315235E-1,9.983820915E0
7.463701677E0,-3.639186621E-1,-7.493851185E-1,1.015380955E1
7.473772424E0,-3.543418646E-1,-7.086837292E-1,1.034774017E1
7.483812652E0,-3.351882398E-1,-6.919242740E-1,1.022563553E1
7.493883398E0,-3.064578176E-1,-7.062895298E-1,9.777919769E0
7.503923626E0,-2.873041928E-1,-7.661445141E-1,9.246406555E0
7.513963854E0,-2.011129409E-1,-8.882488012E-1,9.045293808E0
7.524034600E0,-2.896983922E-1,-9.696516991E-1,9.155426979E0
7.534074828E0,-3.375824392E-1,-9.504981041E-1,9.473855972E0
7.544145574E0,-2.226607651E-1,-9.552865028E-1,9.883264542E0
7.554185803E0,-2.178723514E-1,-9.983820915E-1,1.010831928E1
7.564256549E0,-2.968810201E-1,-1.053448796E0,1.017775154E1
7.574296777E0,-3.399766386E-1,-1.168370485E0,1.013704967E1
7.584367523E0,-3.519476354E-1,-1.223437071E0,1.001733971E1
7.594407751E0,-3.711012602E-1,-1.268926859E0,9.880870819E0
7.604478497E0,-3.758896589E-1,-1.295263171E0,9.792284966E0
7.614518725E0,-3.399766386E-1,-1.302445769E0,9.770736694E0
7.624589471E0,-3.136404157E-1,-1.268926859E0,9.756371498E0
7.634629699E0,-3.016694188E-1,-1.233013868E0,9.758766174E0
7.644669928E0,-2.968810201E-1,-1.158793569E0,9.782708168E0
7.654740674E0,-3.112462163E-1,-1.106121182E0,9.902418137E0
7.664780902E0,-3.256114423E-1,-1.065419793E0,9.952696800E0
7.674851648E0,-3.519476354E-1,-1.034295082E0,9.938331604E0
7.684891876E0,-3.806780577E-1,-1.017535686E0,9.897629738E0
7.694962622E0,-3.734954596E-1,-1.000776291E0,9.847352028E0
7.705002850E0,-3.687070608E-1,-9.983820915E-1,9.832986832E0
7.715073596E0,-3.639186621E-1,-1.046266198E0,9.844957352E0
7.725113825E0,-3.734954596E-1,-1.096544385E0,9.797073364E0
7.735154054E0,-3.399766386E-1,-1.098938584E0,9.801861763E0
7.745224799E0,-3.734954596E-1,-1.144428372E0,9.765948296E0
7.755265028E0,-3.639186621E-1,-1.187524080E0,9.703699112E0
7.765335773E0,-3.591302633E-1,-1.254561663E0,9.622296333E0
7.775376002E0,-4.022258818E-1,-1.285686255E0,9.629479408E0
7.785446747E0,-3.016694188E-1,-1.393425345E0,9.768342972E0
7.795486976E0,-3.639186621E-1,-1.534683347E0,9.832986832E0
7.805557721E0,-3.160346150E-1,-1.666364431E0,9.806650162E0
7.815597951E0,-3.160346150E-1,-1.702277422E0,9.806650162E0
7.825668696E0,-3.591302633E-1,-1.778891921E0,9.777919769E0
7.835708925E0,-3.423708379E-1,-1.807622313E0,9.674968719E0
7.845749153E0,-3.878606856E-1,-1.812410712E0,9.629479408E0
7.855819899E0,-3.926490843E-1,-1.829170108E0,9.655815125E0
7.865860127E0,-3.998316824E-1,-1.872265697E0,9.662998199E0
7.875930872E0,-3.830722570E-1,-1.872265697E0,9.658209801E0
7.885971102E0,-3.734954596E-1,-1.877054095E0,9.662998199E0
7.896041847E0,-4.022258818E-1,-1.893813491E0,9.660603523E0
7.906082076E0,-3.998316824E-1,-1.862688899E0,9.660603523E0
7.916152821E0,-4.333505034E-1,-1.865083098E0,9.765948296E0
7.926193050E0,-4.668693244E-1,-1.867477298E0,9.777919769E0
7.936263795E0,-4.955997467E-1,-1.872265697E0,9.780313492E0
7.946304024E0,-5.003881454E-1,-1.872265697E0,9.804255486E0
7.956374769E0,-5.099649429E-1,-1.855506301E0,9.797073364E0
7.966414998E0,-4.955997467E-1,-1.860294700E0,9.744400978E0
7.976455227E0,-4.836287498E-1,-1.795651317E0,9.691728592E0
7.986525973E0,-5.003881454E-1,-1.814804912E0,9.655815125E0
7.996566201E0,-4.740519226E-1,-1.805228114E0,9.689333916E0
8.006636947E0,-4.955997467E-1,-1.857900500E0,9.742006302E0
8.016677175E0,-4.860229492E-1,-1.917755604E0,9.742006302E0
8.026747921E0,-5.291185975E-1,-1.977610588E0,9.768342972E0
8.036788149E0,-5.171475410E-1,-2.011129379E0,9.691728592E0
8.046858895E0,-4.955997467E-1,-2.003946781E0,9.691728592E0
8.056899124E0,-5.386953950E-1,-2.025494576E0,9.646238327E0
8.066969870E0,-5.219359994E-1,-2.104503393E0,9.634267807E0
8.077010098E0,-5.123591423E-1,-2.123656988E0,9.708487511E0
8.087050326E0,-4.955997467E-1,-2.157175779E0,9.749189377E0
8.097121072E0,-4.764461517E-1,-2.188300371E0,9.742006302E0
8.107161300E0,-4.620809257E-1,-2.229001760E0,9.636661530E0
8.117232046E0,-4.955997467E-1,-2.288856745E0,9.600749016E0
8.127272274E0,-4.836287498E-1,-2.336740971E0,9.595960617E0
8.137343020E0,-4.908113480E-1,-2.367865562E0,9.634267807E0
8.147383249E0,-4.836287498E-1,-2.401384354E0,9.603142738E0
8.157453995E0,-4.620809257E-1,-2.384624958E0,9.562441826E0
8.167494223E0,-4.932055473E-1,-2.398990154E0,9.586383820E0
8.177564969E0,-5.674257874E-1,-2.375048161E0,9.753977776E0
8.187605197E0,-4.836287498E-1,-2.410961151E0,9.593565941E0
8.197675943E0,-5.746083856E-1,-2.401384354E0,9.615114212E0
8.207716171E0,-4.812345505E-1,-2.365471363E0,9.622296333E0
8.217756400E0,-5.339069963E-1,-2.351106167E0,9.636661530E0
8.227827146E0,-5.171475410E-1,-2.398990154E0,9.576807022E0
8.237867374E0,-5.099649429E-1,-2.427720547E0,9.639056206E0
8.247938120E0,-5.386953950E-1,-2.406172752E0,9.653421402E0
8.257978348E0,-4.836287498E-1,-2.430114746E0,9.641449928E0
8.268049094E0,-5.889736414E-1,-2.449268341E0,9.500192642E0
8.278089322E0,-4.692635238E-1,-2.489969730E0,9.255983353E0
8.288160068E0,-4.884171486E-1,-2.504334927E0,9.253589630E0
8.298200296E0,-5.075707436E-1,-2.549824715E0,9.311050415E0
8.308240525E0,-4.860229492E-1,-2.568978310E0,9.524134636E0
8.318311271E0,-4.884171486E-1,-2.571372509E0,9.703699112E0
8.328351499E0,-4.692635238E-1,-2.528276920E0,9.782708168E0
8.338422245E0,-5.195417404E-1,-2.535459518E0,9.701305389E0
8.348462473E0,-5.410895944E-1,-2.573766708E0,9.543288231E0
8.358533219E0,-5.793967843E-1,-2.619256735E0,9.414001465E0
8.368573447E0,-5.698199868E-1,-2.650381327E0,9.385271072E0
8.378644193E0,-5.482721925E-1,-2.705447912E0,9.454702377E0
8.388684421E0,-5.315127969E-1,-2.691082716E0,9.512163162E0
8.398755168E0,-5.506663918E-1,-2.700659513E0,9.394847870E0
8.408795396E0,-5.315127969E-1,-2.717418909E0,9.337387085E0
8.418866142E0,-5.291185975E-1,-2.691082716E0,9.342175484E0
8.428906370E0,-5.434837937E-1,-2.710236311E0,9.301473618E0
8.438977116E0,-4.908113480E-1,-2.712630510E0,9.299078941E0
8.449017344E0,-4.572925270E-1,-2.724601507E0,9.308655739E0
8.459057572E0,-4.812345505E-1,-2.796427488E0,9.265560150E0
8.469128318E0,-5.099649429E-1,-2.810792685E0,9.301473618E0
8.479168547E0,-5.267243981E-1,-2.796427488E0,9.512163162E0
8.489239293E0,-5.243301988E-1,-2.777273893E0,9.682151794E0
8.499279521E0,-5.123591423E-1,-2.810792685E0,9.775525093E0
8.509350267E0,-4.836287498E-1,-2.829946518E0,9.749189377E0
8.519390495E0,-5.219359994E-1,-2.846705914E0,9.581595421E0
8.529461241E0,-5.506663918E-1,-2.882618904E0,9.519346237E0
8.539501469E0,-5.195417404E-1,-2.889801502E0,9.471462250E0
8.549572215E0,-5.243301988E-1,-2.877830505E0,9.370905876E0
8.559612443E0,-5.099649429E-1,-2.894589901E0,9.509769440E0
8.569683190E0,-5.506663918E-1,-2.908955097E0,9.684545517E0
8.579723418E0,-5.626373887E-1,-2.899378300E0,9.696516991E0
8.589794164E0,-5.434837937E-1,-2.913743496E0,9.639056206E0
8.599834392E0,-5.482721925E-1,-2.901772499E0,9.493009567E0
8.609905138E0,-5.937620401E-1,-2.932897091E0,9.435548782E0
8.619945366E0,-5.578489900E-1,-2.956839085E0,9.483432770E0
8.630016112E0,-5.554547906E-1,-2.968810081E0,9.490615845E0
8.640056340E0,-5.363011956E-1,-2.971204281E0,9.466673851E0
8.650127086E0,-5.554547906E-1,-2.975992680E0,9.351752281E0
8.660197832E0,-5.937620401E-1,-2.973598480E0,9.248801231E0
8.670238061E0,-5.746083856E-1,-2.954444885E0,9.323021889E0
8.680308807E0,-5.650315881E-1,-2.997540474E0,9.495404243E0
8.690349035E0,-5.482721925E-1,-2.975992680E0,9.526528358E0
8.700419781E0,-5.770025849E-1,-2.952050686E0,9.481039047E0
8.710460009E0,-5.554547906E-1,-2.956839085E0,9.437943459E0
8.720530755E0,-6.105214357E-1,-3.014299870E0,9.387664795E0
8.730570983E0,-5.865794420E-1,-3.007117271E0,9.289502144E0
8.740641729E0,-5.722141862E-1,-3.004723072E0,9.205705643E0
8.750681958E0,-5.817909837E-1,-3.055001259E0,9.294290543E0
8.760752704E0,-5.722141862E-1,-3.093308687E0,9.344569206E0
8.770792932E0,-5.650315881E-1,-3.107673883E0,9.356540680E0
8.780863678E0,-5.434837937E-1,-3.136404276E0,9.303867340E0
8.790903906E0,-5.674257874E-1,-3.191470861E0,9.284713745E0
8.800974652E0,-5.674257874E-1,-3.184288263E0,9.330204010E0
8.811014880E0,-5.578489900E-1,-3.191470861E0,9.464279175E0
8.821085626E0,-5.530605912E-1,-3.215412855E0,9.493009567E0
8.831156371E0,-5.626373887E-1,-3.217807055E0,9.313444138E0
8.841196600E0,-5.770025849E-1,-3.229778051E0,9.220070839E0
8.851267346E0,-5.865794420E-1,-3.244143248E0,9.272743225E0
8.861307575E0,-5.770025849E-1,-3.244143248E0,9.263166428E0
8.871378320E0,-5.434837937E-1,-3.256114244E0,9.232041359E0
8.881418549E0,-5.674257874E-1,-3.270479441E0,9.222464561E0
8.891489294E0,-5.674257874E-1,-3.299209833E0,9.248801231E0
8.901529523E0,-5.865794420E-1,-3.296815634E0,9.339780807E0
8.911600268E0,-5.339069963E-1,-3.265691042E0,9.404424667E0
8.921640497E0,-5.961562395E-1,-3.296815634E0,9.418789864E0
8.931711242E0,-5.339069963E-1,-3.289633036E0,9.334992409E0
8.941751472E0,-5.147533417E-1,-3.275267839E0,9.244012833E0
8.951822217E0,-5.195417404E-1,-3.265691042E0,9.306262016E0
8.961862445E0,-5.147533417E-1,-3.263296843E0,9.476250648E0
8.971933191E0,-5.291185975E-1,-3.265691042E0,9.643844604E0
8.981973419E0,-5.171475410E-1,-3.265691042E0,9.674968719E0
8.992044165E0,-5.410895944E-1,-3.246537447E0,9.557653427E0
9.002084393E0,-5.746083856E-1,-3.258508444E0,9.315838814E0
9.012155139E0,-5.626373887E-1,-3.256114244E0,9.217676163E0
9.022195367E0,-5.602431893E-1,-3.251325846E0,9.203310966E0
9.032266114E0,-5.458779931E-1,-3.241749048E0,9.157821655E0
9.042306342E0,-5.123591423E-1,-3.260902643E0,9.184157372E0
9.052377088E0,-5.051765442E-1,-3.277662039E0,9.153033257E0
9.062417316E0,-5.339069963E-1,-3.306392431E0,9.186552048E0
9.072488062E0,-5.698199868E-1,-3.337517262E0,9.215282440E0
9.082528290E0,-6.033388376E-1,-3.361459255E0,9.229647636E0
9.092599036E0,-6.248866320E-1,-3.385401249E0,9.265560150E0
9.102639264E0,-6.655880809E-1,-3.383007050E0,9.320627213E0
9.112710010E0,-6.320692301E-1,-3.418920040E0,9.409213066E0
9.122750239E0,-6.296750307E-1,-3.438073635E0,9.373299599E0
9.132790468E0,-5.865794420E-1,-3.418920040E0,9.279925346E0
9.142861213E0,-6.033388376E-1,-3.385401249E0,9.279925346E0
9.152901442E0,-5.961562395E-1,-3.344699860E0,9.387664795E0
9.162972187E0,-5.770025849E-1,-3.332728863E0,9.394847870E0
9.173012416E0,-5.793967843E-1,-3.320757866E0,9.382876396E0
9.183083161E0,-5.219359994E-1,-3.344699860E0,9.435548782E0
9.193123390E0,-5.410895944E-1,-3.337517262E0,9.358934402E0
9.203194136E0,-5.291185975E-1,-3.294421434E0,9.294290543E0
9.213234365E0,-4.596867263E-1,-3.253720045E0,9.409213066E0
9.223305110E0,-5.482721925E-1,-3.241749048E0,9.449913979E0
9.233345338E0,-5.075707436E-1,-3.246537447E0,9.514557838E0
9.243416084E0,-5.506663918E-1,-3.210624456E0,9.586383820E0
9.253456312E0,-5.698199868E-1,-3.145981073E0,9.430760384E0
9.263527058E0,-5.698199868E-1,-3.165134668E0,9.303867340E0
9.273567286E0,-4.668693244E-1,-3.117250681E0,9.167398453E0
9.283638032E0,-4.525041282E-1,-3.083731890E0,9.165003777E0
9.293678261E0,-4.668693244E-1,-3.064578056E0,9.358934402E0
9.303749007E0,-4.237737060E-1,-3.066972494E0,9.358934402E0
9.313789235E0,-4.405331016E-1,-3.078943491E0,9.301473618E0
9.323859981E0,-4.884171486E-1,-3.052607059E0,9.267954826E0
9.333900209E0,-4.572925270E-1,-3.021482468E0,9.289502144E0
9.343970955E0,-5.027823448E-1,-3.004723072E0,9.368511200E0
9.354011183E0,-5.219359994E-1,-2.944868088E0,9.416395187E0
9.364081929E0,-5.003881454E-1,-2.913743496E0,9.442731857E0
9.374122158E0,-4.620809257E-1,-2.887407303E0,9.476250648E0
9.384192904E0,-4.501099288E-1,-2.899378300E0,9.536105156E0
9.394233132E0,-4.237737060E-1,-2.894589901E0,9.514557838E0
9.404303878E0,-3.758896589E-1,-2.918531895E0,9.392453194E0
9.414344106E0,-4.165911078E-1,-2.925714493E0,9.330204010E0
9.424414852E0,-4.764461517E-1,-2.904166698E0,9.303867340E0
9.434455080E0,-4.955997467E-1,-2.880224705E0,9.255983353E0
9.444525826E0,-4.860229492E-1,-2.846705914E0,9.229647636E0
9.454566054E0,-4.716577232E-1,-2.791639090E0,9.301473618E0
9.464636800E0,-4.620809257E-1,-2.772485495E0,9.500192642E0
9.474677029E0,-4.572925270E-1,-2.741360903E0,9.631873131E0
9.484747775E0,-4.548983276E-1,-2.726995707E0,9.629479408E0
9.494788003E0,-4.261679053E-1,-2.695871115E0,9.617507935E0
9.504858749E0,-4.644751251E-1,-2.669534922E0,9.557653427E0
9.514898977E0,-4.716577232E-1,-2.626439333E0,9.507374763E0
9.524969723E0,-5.075707436E-1,-2.585737944E0,9.435548782E0
9.535009951E0,-5.123591423E-1,-2.525882721E0,9.385271072E0
9.545080697E0,-4.884171486E-1,-2.535459518E0,9.385271072E0
9.555120926E0,-4.596867263E-1,-2.528276920E0,9.526528358E0
9.565191672E0,-4.620809257E-1,-2.506729126E0,9.727641106E0
9.575231900E0,-4.979939461E-1,-2.506729126E0,9.840168953E0
9.585302646E0,-4.884171486E-1,-2.461239338E0,9.715670586E0
9.595342874E0,-5.147533417E-1,-2.410961151E0,9.437943459E0
9.605413620E0,-5.171475410E-1,-2.389413357E0,9.198522568E0
9.615453848E0,-5.027823448E-1,-2.329558372E0,9.074024200E0
9.625524594E0,-4.764461517E-1,-2.305616140E0,9.279925346E0
9.635564822E0,-4.381389022E-1,-2.288856745E0,9.722852707E0
9.645605051E0,-4.405331016E-1,-2.312798738E0,1.001255131E1
9.655675797E0,-4.141969085E-1,-2.324769735E0,1.008198357E1
9.665716025E0,-4.094084799E-1,-2.303221941E0,9.916783333E0
9.675786771E0,-4.141969085E-1,-2.264914751E0,9.701305389E0
9.685826999E0,-4.357447028E-1,-2.236184359E0,9.536105156E0
9.695897745E0,-4.477157295E-1,-2.212242365E0,9.406818390E0
9.705937973E0,-4.620809257E-1,-2.207453966E0,9.387664795E0
9.716008719E0,-4.644751251E-1,-2.173935175E0,9.418789864E0
9.726048948E0,-4.261679053E-1,-2.181117773E0,9.579200745E0
9.736119694E0,-4.046200812E-1,-2.190694571E0,9.679757118E0
9.746159922E0,-4.213795066E-1,-2.202665567E0,9.706093788E0
9.756230668E0,-3.830722570E-1,-2.185906172E0,9.713275909E0
9.766270896E0,-3.974374831E-1,-2.181117773E0,9.706093788E0
9.776311124E0,-3.663128614E-1,-2.152387381E0,9.682151794E0
9.786381870E0,-3.711012602E-1,-2.147598982E0,9.662998199E0
9.796422098E0,-3.830722570E-1,-2.147598982E0,9.655815125E0
9.806492844E0,-4.046200812E-1,-2.145204782E0,9.684545517E0
9.816533073E0,-4.022258818E-1,-2.106897593E0,9.751583099E0
9.826603819E0,-3.734954596E-1,-2.042253971E0,9.789890289E0
9.836644047E0,-3.926490843E-1,-2.008735180E0,9.730035782E0
9.846714793E0,-4.141969085E-1,-1.999158382E0,9.646238327E0
9.856755021E0,-3.950432837E-1,-1.963245392E0,9.603142738E0
9.866825767E0,-3.926490843E-1,-1.941697598E0,9.646238327E0
9.876865995E0,-3.734954596E-1,-1.910573006E0,9.710882187E0
9.886936741E0,-3.878606856E-1,-1.881842494E0,9.804255486E0
9.896976970E0,-3.711012602E-1,-1.889025092E0,9.768342972E0
9.907047716E0,-3.782838583E-1,-1.886630893E0,9.662998199E0
9.917087944E0,-3.423708379E-1,-1.848323703E0,9.588777542E0
9.927158690E0,-3.758896589E-1,-1.817199111E0,9.607931137E0
9.937198918E0,-3.878606856E-1,-1.805228114E0,9.655815125E0
9.947239147E0,-3.734954596E-1,-1.860294700E0,9.756371498E0
9.957309892E0,-3.926490843E-1,-1.874659896E0,9.816226959E0
9.967350121E0,-4.213795066E-1,-1.884236693E0,9.811438560E0
9.977420866E0,-3.998316824E-1,-1.905784607E0,9.789890289E0
9.987461096E0,-3.711012602E-1,-1.860294700E0,9.718064308E0
9.997531841E0,-3.495534360E-1,-1.836352706E0,9.706093788E0
1.000757207E1,-3.423708379E-1,-1.824381709E0,9.696516991E0
1.001764282E1,-3.303998411E-1,-1.807622313E0,9.694122314E0
1.002768304E1,-3.375824392E-1,-1.793257117E0,9.734824181E0
1.003775379E1,-3.327940404E-1,-1.754949808E0,9.725247383E0
1.004779402E1,-3.184288144E-1,-1.750161409E0,9.744400978E0
1.005786476E1,-3.519476354E-1,-1.726219416E0,9.765948296E0
1.006790499E1,-3.567360640E-1,-1.699883223E0,9.801861763E0
1.007794522E1,-3.495534360E-1,-1.637633920E0,9.799467087E0
1.008801597E1,-3.615244627E-1,-1.637633920E0,9.722852707E0
1.009805620E1,-3.830722570E-1,-1.630451322E0,9.682151794E0
1.010812694E1,-3.639186621E-1,-1.637633920E0,9.739612579E0
1.011816717E1,-3.734954596E-1,-1.599326730E0,9.780313492E0
1.012823791E1,-3.711012602E-1,-1.572990537E0,9.765948296E0
1.013827814E1,-3.711012602E-1,-1.556231141E0,9.794678688E0
1.014834889E1,-3.615244627E-1,-1.534683347E0,9.837775230E0
1.015838912E1,-3.567360640E-1,-1.529894829E0,9.809044838E0
1.016845986E1,-3.567360640E-1,-1.532289028E0,9.787496567E0
1.017850009E1,-4.118026793E-1,-1.537077546E0,9.897629738E0
1.018857084E1,-2.992752194E-1,-1.558625340E0,9.715670586E0
1.019861107E1,-3.639186621E-1,-1.532289028E0,9.770736694E0
1.020868181E1,-3.375824392E-1,-1.541865945E0,9.751583099E0
1.021872204E1,-3.303998411E-1,-1.534683347E0,9.837775230E0
1.022879279E1,-3.567360640E-1,-1.537077546E0,9.825803757E0
1.023883302E1,-2.920926213E-1,-1.529894829E0,9.828198433E0
1.024887324E1,-3.184288144E-1,-1.517923832E0,9.744400978E0
1.025894399E1,-2.777273953E-1,-1.477222443E0,9.756371498E0
1.026898422E1,-3.040636182E-1,-1.482010841E0,9.797073364E0
1.027905496E1,-2.609679997E-1,-1.462857246E0,9.859322548E0
1.028909519E1,-2.992752194E-1,-1.472434044E0,9.653421402E0
1.029916594E1,-3.232172430E-1,-1.489193439E0,9.725247383E0
1.030920616E1,-3.232172430E-1,-1.470039845E0,9.981427193E0
1.031927691E1,-3.280056417E-1,-1.431732655E0,1.010831928E1
1.032931714E1,-3.232172430E-1,-1.403002143E0,9.916783333E0
1.033938788E1,-3.136404157E-1,-1.393425345E0,9.603142738E0
1.034942811E1,-3.016694188E-1,-1.393425345E0,9.368511200E0
1.035946834E1,-2.777273953E-1,-1.357512355E0,9.425971985E0
1.036953909E1,-2.825157940E-1,-1.352723956E0,9.665391922E0
1.037957932E1,-2.585737705E-1,-1.340752959E0,9.967061996E0
1.038965006E1,-2.561795712E-1,-1.340752959E0,1.018014526E1
1.039969029E1,-2.585737705E-1,-1.292868972E0,1.019211674E1
1.040976104E1,-2.873041928E-1,-1.254561663E0,1.008437729E1
1.041980126E1,-3.016694188E-1,-1.218648672E0,9.897629738E0
1.042987201E1,-3.495534360E-1,-1.199495077E0,9.780313492E0
1.043991224E1,-3.280056417E-1,-1.192312479E0,9.725247383E0
1.044998298E1,-3.040636182E-1,-1.204283476E0,9.686940193E0
1.046002321E1,-3.184288144E-1,-1.228225470E0,9.725247383E0
1.047009396E1,-3.136404157E-1,-1.223437071E0,9.765948296E0
1.048013419E1,-2.992752194E-1,-1.206677675E0,9.806650162E0
1.049020493E1,-3.016694188E-1,-1.173158884E0,9.809044838E0
1.050024516E1,-3.232172430E-1,-1.182735682E0,9.801861763E0
1.051031591E1,-2.944868207E-1,-1.192312479E0,9.792284966E0
1.052035614E1,-3.064578176E-1,-1.201889277E0,9.789890289E0
1.053039636E1,-2.920926213E-1,-1.209071875E0,9.811438560E0
1.054046711E1,-2.968810201E-1,-1.261744261E0,9.854534149E0
1.055050734E1,-2.849099934E-1,-1.254561663E0,9.878476143E0
1.056057808E1,-2.992752194E-1,-1.221042871E0,9.955090523E0
1.057061831E1,-3.040636182E-1,-1.192312479E0,9.907206535E0
1.058068906E1,-3.160346150E-1,-1.161187768E0,9.828198433E0
1.059072929E1,-2.944868207E-1,-1.132457376E0,9.706093788E0
1.060080003E1,-3.232172430E-1,-1.106121182E0,9.641449928E0
1.061084026E1,-2.777273953E-1,-1.096544385E0,9.739612579E0
1.062091101E1,-2.561795712E-1,-1.113303781E0,9.854534149E0
1.063095124E1,-2.633621991E-1,-1.113303781E0,9.880870819E0
1.064102198E1,-2.489969730E-1,-1.074996591E0,9.876082420E0
1.065106221E1,-2.849099934E-1,-1.072602391E0,9.854534149E0
1.066110244E1,-2.801215947E-1,-1.055842996E0,9.842563629E0
1.067117318E1,-2.657563984E-1,-1.034295082E0,9.871294022E0
1.068121341E1,-2.609679997E-1,-1.063025594E0,9.883264542E0
1.069128416E1,-2.394201756E-1,-1.058237195E0,9.854534149E0
1.070132439E1,-2.418143749E-1,-1.039083481E0,9.837775230E0
1.071139513E1,-2.489969730E-1,-1.031900883E0,9.837775230E0
1.072143536E1,-2.466027737E-1,-1.007958889E0,9.825803757E0
1.073150611E1,-2.609679997E-1,-1.005564690E0,9.830592155E0
1.074154633E1,-2.801215947E-1,-9.959878922E-1,9.847352028E0
1.075161708E1,-2.873041928E-1,-9.935936928E-1,9.842563629E0
1.076165731E1,-2.944868207E-1,-9.959878922E-1,9.840168953E0
1.077169754E1,-2.753331959E-1,-1.022324085E0,9.847352028E0
1.078176828E1,-2.537853718E-1,-1.007958889E0,9.885659218E0
1.079180851E1,-2.825157940E-1,-1.019929886E0,9.861717224E0
1.080187926E1,-2.513911724E-1,-1.010353088E0,9.852140427E0
1.081191948E1,-2.705447972E-1,-9.983820915E-1,9.830592155E0
1.082199023E1,-2.729389966E-1,-9.983820915E-1,9.813833237E0
1.083203046E1,-2.777273953E-1,-9.816226959E-1,9.832986832E0
1.084210121E1,-2.681505978E-1,-9.911994934E-1,9.849745750E0
1.085214143E1,-2.537853718E-1,-1.015141487E0,9.849745750E0
1.086221218E1,-2.657563984E-1,-9.888052940E-1,9.837775230E0
1.087225241E1,-2.705447972E-1,-9.624691010E-1,9.813833237E0
1.088232315E1,-2.561795712E-1,-9.600749016E-1,9.825803757E0
1.089236338E1,-2.633621991E-1,-9.576807022E-1,9.854534149E0
1.090240361E1,-2.753331959E-1,-9.409212470E-1,9.847352028E0
1.091247436E1,-2.825157940E-1,-9.169792533E-1,9.854534149E0
1.092251458E1,-2.849099934E-1,-9.193734527E-1,9.878476143E0
1.093258533E1,-2.777273953E-1,-9.313444495E-1,9.883264542E0
1.094262556E1,-2.825157940E-1,-9.289502501E-1,9.859322548E0
1.095269630E1,-2.585737705E-1,-9.145850539E-1,9.856928825E0
1.096273653E1,-2.561795712E-1,-9.074024558E-1,9.852140427E0
1.097280728E1,-2.896983922E-1,-8.858546019E-1,9.830592155E0
1.098284751E1,-2.825157940E-1,-8.690952063E-1,9.849745750E0
1.099291825E1,-2.896983922E-1,-8.690952063E-1,9.876082420E0
1.100295848E1,-2.968810201E-1,-8.714894056E-1,9.883264542E0
1.101302923E1,-2.681505978E-1,-8.738836050E-1,9.837775230E0
1.102306946E1,-2.609679997E-1,-8.810662031E-1,9.873687744E0
1.103310968E1,-2.753331959E-1,-8.667010069E-1,9.895236015E0
1.104318043E1,-2.633621991E-1,-8.403648138E-1,9.895236015E0
1.105322066E1,-2.585737705E-1,-8.355764151E-1,9.921571732E0
1.106329140E1,-2.753331959E-1,-8.283938169E-1,9.928754807E0
1.107333163E1,-2.944868207E-1,-8.140285611E-1,9.933543205E0
1.108340238E1,-2.896983922E-1,-8.068459630E-1,1.000058079E1
1.109344261E1,-2.825157940E-1,-8.092401624E-1,1.007958889E1
1.110351335E1,-2.968810201E-1,-8.020575643E-1,1.011789608E1
1.111355358E1,-3.184288144E-1,-7.852981687E-1,1.008198357E1
1.112362433E1,-3.160346150E-1,-7.613561153E-1,1.005085850E1
1.113366456E1,-3.447650373E-1,-7.685387731E-1,9.979032516E0
1.114373530E1,-3.543418646E-1,-8.164227605E-1,9.844957352E0
1.115377553E1,-4.046200812E-1,-9.313444495E-1,9.662998199E0
1.116384628E1,-2.274491638E-1,-8.212111592E-1,9.576807022E0
1.117388650E1,-2.920926213E-1,-7.948749661E-1,9.574412346E0
1.118392673E1,-3.543418646E-1,-8.427590132E-1,9.471462250E0
1.119399748E1,-2.896983922E-1,-9.433154464E-1,9.595960617E0
1.120403771E1,-3.782838583E-1,-1.003170490E0,9.708487511E0
1.121410845E1,-3.423708379E-1,-1.127668977E0,9.876082420E0
1.122414868E1,-4.046200812E-1,-1.228225470E0,9.885659218E0
1.123421943E1,-3.423708379E-1,-1.288080573E0,9.785101891E0
1.124425965E1,-3.543418646E-1,-1.395819545E0,9.900024414E0
1.125433040E1,-3.758896589E-1,-1.448492050E0,9.876082420E0
1.126437063E1,-2.753331959E-1,-1.498770237E0,9.825803757E0
1.127444138E1,-3.351882398E-1,-1.498770237E0,9.665391922E0
1.128448160E1,-3.064578176E-1,-1.482010841E0,9.737217903E0
1.129452183E1,-3.136404157E-1,-1.426944256E0,9.658209801E0
1.130459258E1,-3.040636182E-1,-1.359906554E0,9.773131371E0
1.131463281E1,-3.399766386E-1,-1.268926859E0,9.974244118E0
1.132470355E1,-3.232172430E-1,-1.204283476E0,1.012747288E1
1.133474378E1,-3.375824392E-1,-1.137245774E0,1.006522369E1
1.134481453E1,-3.471592367E-1,-1.132457376E0,9.900024414E0
1.135485476E1,-3.495534360E-1,-1.125274777E0,9.775525093E0
1.136492550E1,-3.687070608E-1,-1.156399369E0,9.739612579E0
1.137496573E1,-3.687070608E-1,-1.192312479E0,9.751583099E0
1.138500596E1,-3.591302633E-1,-1.216254473E0,9.821015358E0
1.139507670E1,-3.543418646E-1,-1.237802267E0,9.866505623E0
1.140511693E1,-3.711012602E-1,-1.273715258E0,9.830592155E0
1.141518768E1,-3.543418646E-1,-1.335964561E0,9.734824181E0
1.142522791E1,-3.663128614E-1,-1.398213744E0,9.751583099E0
1.143529865E1,-3.447650373E-1,-1.484405041E0,9.744400978E0
1.144533888E1,-3.663128614E-1,-1.549048543E0,9.785101891E0
1.145540963E1,-3.950432837E-1,-1.649604917E0,9.792284966E0
1.146544985E1,-3.950432837E-1,-1.723825216E0,9.727641106E0
1.147552060E1,-3.854664862E-1,-1.790862918E0,9.658209801E0
1.148556083E1,-3.878606856E-1,-1.857900500E0,9.655815125E0
1.149563157E1,-3.878606856E-1,-1.884236693E0,9.787496567E0
1.150567180E1,-3.663128614E-1,-1.884236693E0,9.818621635E0
1.151574255E1,-4.405331016E-1,-1.917755604E0,9.739612579E0
1.152578278E1,-4.405331016E-1,-1.929726601E0,9.658209801E0
1.153585352E1,-4.022258818E-1,-1.936909199E0,9.583989143E0
1.154589375E1,-4.070142806E-1,-1.920149803E0,9.567230225E0
1.155596450E1,-4.141969085E-1,-1.958456993E0,9.591172218E0
1.156600472E1,-4.141969085E-1,-1.972822189E0,9.660603523E0
1.157607547E1,-3.543418646E-1,-1.991975784E0,9.792284966E0
1.158611570E1,-3.854664862E-1,-1.982398987E0,9.847352028E0
1.159618644E1,-3.782838583E-1,-1.939303398E0,9.794678688E0
1.160622667E1,-3.854664862E-1,-1.956062794E0,9.742006302E0
1.161629742E1,-3.902548850E-1,-1.934514999E0,9.682151794E0
1.162633765E1,-4.285621047E-1,-2.011129379E0,9.703699112E0
1.163640839E1,-4.261679053E-1,-2.025494576E0,9.756371498E0
1.164644862E1,-4.429273009E-1,-1.975216389E0,9.775525093E0
1.165651937E1,-4.548983276E-1,-1.977610588E0,9.753977776E0
1.166655960E1,-4.477157295E-1,-1.968033791E0,9.710882187E0
1.167663034E1,-4.141969085E-1,-1.948880196E0,9.641449928E0
1.168667057E1,-4.309563041E-1,-1.948880196E0,9.651026726E0
1.169674132E1,-3.902548850E-1,-2.035071373E0,9.677363396E0
1.170678154E1,-4.309563041E-1,-2.059013367E0,9.672574997E0
1.171685229E1,-4.070142806E-1,-2.087743998E0,9.631873131E0
1.172689252E1,-4.644751251E-1,-2.128445387E0,9.550470352E0
1.173696326E1,-4.812345505E-1,-2.128445387E0,9.550470352E0
1.174700349E1,-4.860229492E-1,-2.171540976E0,9.624691010E0
1.175707424E1,-4.644751251E-1,-2.212242365E0,9.646238327E0
1.176711447E1,-4.572925270E-1,-2.281674147E0,9.591172218E0
1.177715470E1,-4.477157295E-1,-2.286462545E0,9.583989143E0
1.178722544E1,-4.572925270E-1,-2.327163935E0,9.631873131E0
1.179726567E1,-4.309563041E-1,-2.363077164E0,9.677363396E0
1.180733642E1,-4.357447028E-1,-2.389413357E0,9.653421402E0
1.181737664E1,-4.141969085E-1,-2.384624958E0,9.624691010E0
1.182744739E1,-4.405331016E-1,-2.425326347E0,9.564835548E0
1.183748762E1,-4.453215301E-1,-2.456450939E0,9.514557838E0
1.184755836E1,-4.644751251E-1,-2.468421936E0,9.540893555E0
1.185759859E1,-4.692635238E-1,-2.482787132E0,9.579200745E0
1.186766934E1,-4.860229492E-1,-2.485181332E0,9.572018623E0
1.187770957E1,-4.596867263E-1,-2.482787132E0,9.588777542E0
1.188774980E1,-4.764461517E-1,-2.485181332E0,9.622296333E0
1.189782054E1,-4.692635238E-1,-2.485181332E0,9.636661530E0
1.190786077E1,-4.668693244E-1,-2.461239338E0,9.672574997E0
1.191793152E1,-4.572925270E-1,-2.454056740E0,9.627084732E0
1.192797174E1,-4.548983276E-1,-2.451662540E0,9.605537415E0
1.193804249E1,-4.836287498E-1,-2.475604534E0,9.631873131E0
1.194808272E1,-4.908113480E-1,-2.511517525E0,9.627084732E0
1.195815346E1,-4.884171486E-1,-2.559401512E0,9.651026726E0
1.196819369E1,-4.812345505E-1,-2.592920542E0,9.624691010E0
1.197826444E1,-5.147533417E-1,-2.626439333E0,9.564835548E0
1.198830467E1,-5.099649429E-1,-2.609679937E0,9.610325813E0
1.199837541E1,-5.291185975E-1,-2.602497339E0,9.586383820E0
1.200841564E1,-5.099649429E-1,-2.609679937E0,9.392453194E0
1.201848639E1,-4.836287498E-1,-2.590526342E0,9.136273384E0
1.202852662E1,-4.405331016E-1,-2.621650934E0,9.054870605E0
1.203859736E1,-3.998316824E-1,-2.640804529E0,9.203310966E0
1.204863759E1,-4.357447028E-1,-2.679111719E0,9.500192642E0
1.205867782E1,-4.908113480E-1,-2.671929121E0,9.859322548E0
1.206874856E1,-4.572925270E-1,-2.705447912E0,9.737217903E0
1.207878879E1,-4.572925270E-1,-2.726995707E0,9.617507935E0
1.208885954E1,-4.788403511E-1,-2.791639090E0,9.485827446E0
1.209889976E1,-4.812345505E-1,-2.813186884E0,9.409213066E0
1.210897051E1,-4.860229492E-1,-2.820369720E0,9.421183586E0
1.211901074E1,-4.716577232E-1,-2.813186884E0,9.428366661E0
1.212908149E1,-4.644751251E-1,-2.827552319E0,9.437943459E0
1.213912171E1,-4.668693244E-1,-2.825158119E0,9.428366661E0
1.214919246E1,-4.740519226E-1,-2.822763920E0,9.495404243E0
1.215923269E1,-4.908113480E-1,-2.837129116E0,9.583989143E0
1.216930343E1,-5.027823448E-1,-2.849100113E0,9.674968719E0
1.217934366E1,-5.578489900E-1,-2.794033289E0,9.885659218E0
1.218941441E1,-4.860229492E-1,-2.825158119E0,9.540893555E0
1.219945464E1,-4.596867263E-1,-2.808398485E0,9.466673851E0
1.220952538E1,-4.860229492E-1,-2.765302896E0,9.351752281E0
1.221956561E1,-4.501099288E-1,-2.803610086E0,9.449913979E0
1.222963636E1,-5.171475410E-1,-2.820369720E0,9.598354340E0
1.223967659E1,-4.309563041E-1,-2.837129116E0,9.581595421E0
1.224971681E1,-4.668693244E-1,-2.858676910E0,9.471462250E0
1.225978756E1,-4.812345505E-1,-2.870647907E0,9.291896820E0
1.226982779E1,-4.884171486E-1,-2.868253708E0,9.366117477E0
1.227989853E1,-5.051765442E-1,-2.889801502E0,9.504981041E0
1.228993876E1,-4.764461517E-1,-2.899378300E0,9.516951561E0
1.230000951E1,-5.051765442E-1,-2.918531895E0,9.531316757E0
1.231004974E1,-5.075707436E-1,-2.944868088E0,9.478644371E0
1.232012048E1,-4.860229492E-1,-2.990357876E0,9.325415611E0
1.233016071E1,-4.548983276E-1,-3.035847664E0,9.193734169E0
1.234023146E1,-4.716577232E-1,-3.038241863E0,9.279925346E0
1.235027168E1,-4.860229492E-1,-3.110068083E0,9.351752281E0
1.236034243E1,-4.860229492E-1,-3.165134668E0,9.557653427E0
1.237038266E1,-4.979939461E-1,-3.172317266E0,9.572018623E0
1.238045340E1,-5.123591423E-1,-3.213018656E0,9.483432770E0
1.239049363E1,-5.075707436E-1,-3.181894064E0,9.112331390E0
1.240056438E1,-4.692635238E-1,-3.153163671E0,9.011775017E0
1.241060461E1,-5.195417404E-1,-3.050212860E0,9.330204010E0
1.242067535E1,-5.219359994E-1,-3.023876667E0,9.600749016E0
1.243071558E1,-5.291185975E-1,-3.052607059E0,9.732429504E0
1.244078633E1,-4.979939461E-1,-3.071760893E0,9.519346237E0
1.245082656E1,-5.506663918E-1,-3.055001259E0,9.100360870E0
1.246089730E1,-5.530605912E-1,-3.143586874E0,9.004592896E0
1.247093753E1,-5.339069963E-1,-3.009511471E0,9.200917244E0
1.248100828E1,-3.854664862E-1,-2.928108692E0,9.469067574E0
1.249104850E1,-4.716577232E-1,-2.911349297E0,9.495404243E0
1.250111925E1,-5.219359994E-1,-3.011905670E0,9.402029991E0
1.251115948E1,-4.572925270E-1,-3.023876667E0,9.196128845E0
1.252123022E1,-3.375824392E-1,-2.985569477E0,9.143456459E0
1.253127045E1,-3.136404157E-1,-2.985569477E0,9.442731857E0
1.254134120E1,-3.136404157E-1,-2.954444885E0,9.612719536E0
1.255138143E1,-3.327940404E-1,-2.973598480E0,9.526528358E0
1.256145217E1,-3.256114423E-1,-3.038241863E0,9.519346237E0
1.257149240E1,-3.854664862E-1,-3.086126089E0,9.433155060E0
1.258156315E1,-3.998316824E-1,-3.081337690E0,9.306262016E0
1.259160338E1,-3.950432837E-1,-3.019088268E0,9.217676163E0
1.260164360E1,-4.022258818E-1,-2.956839085E0,9.234436035E0
1.261171435E1,-4.022258818E-1,-2.947262287E0,9.361329079E0
1.262175458E1,-3.782838583E-1,-2.937685490E0,9.504981041E0
1.263182532E1,-3.615244627E-1,-2.889801502E0,9.591172218E0
1.264186555E1,-3.758896589E-1,-2.858676910E0,9.531316757E0
1.265193630E1,-3.806780577E-1,-2.858676910E0,9.617507935E0
1.266197653E1,-3.567360640E-1,-2.837129116E0,9.789890289E0
1.267204727E1,-2.729389966E-1,-2.719813108E0,9.619902611E0
1.268208750E1,-2.825157940E-1,-2.729389906E0,9.339780807E0
1.269215825E1,-3.567360640E-1,-2.808398485E0,9.066842079E0
1.270219847E1,-4.381389022E-1,-2.774879694E0,9.097966194E0
1.271226922E1,-3.878606856E-1,-2.719813108E0,9.418789864E0
1.272230945E1,-3.160346150E-1,-2.679111719E0,9.763554573E0
1.273238020E1,-3.112462163E-1,-2.626439333E0,9.835380554E0
1.274242042E1,-3.184288144E-1,-2.571372509E0,9.780313492E0
1.275249117E1,-3.160346150E-1,-2.592920542E0,9.670180321E0
1.276253140E1,-3.687070608E-1,-2.590526342E0,9.397241592E0
1.277260214E1,-3.615244627E-1,-2.585737944E0,9.315838814E0
1.278264237E1,-3.375824392E-1,-2.592920542E0,9.430760384E0
1.279271312E1,-3.208230138E-1,-2.624045134E0,9.509769440E0
1.280275335E1,-3.256114423E-1,-2.645592928E0,9.579200745E0
1.281282409E1,-3.016694188E-1,-2.626439333E0,9.583989143E0
1.282286432E1,-2.633621991E-1,-2.590526342E0,9.629479408E0
1.283293507E1,-2.633621991E-1,-2.592920542E0,9.684545517E0
1.284297529E1,-2.585737705E-1,-2.578555346E0,9.653421402E0
1.285304604E1,-2.681505978E-1,-2.571372509E0,9.605537415E0
1.286308627E1,-2.657563984E-1,-2.576161146E0,9.581595421E0
1.287315701E1,-2.513911724E-1,-2.511517525E0,9.583989143E0
1.288319724E1,-2.561795712E-1,-2.468421936E0,9.572018623E0
1.289326799E1,-2.370259613E-1,-2.430114746E0,9.653421402E0
1.290330822E1,-1.819593310E-1,-2.379836559E0,9.682151794E0
1.291337896E1,-2.322375625E-1,-2.348711967E0,9.725247383E0
1.292341919E1,-2.657563984E-1,-2.293645144E0,9.667786598E0
1.293348994E1,-2.873041928E-1,-2.226607561E0,9.533711433E0
1.294353016E1,-2.944868207E-1,-2.173935175E0,9.442731857E0
1.295360091E1,-2.681505978E-1,-2.188300371E0,9.504981041E0
1.296364114E1,-2.274491638E-1,-2.142810583E0,9.624691010E0
1.297371188E1,-2.442085743E-1,-2.121262789E0,9.739612579E0
1.298375211E1,-2.298433632E-1,-2.123656988E0,9.806650162E0
1.299382286E1,-2.298433632E-1,-2.138022184E0,9.840168953E0
1.300386309E1,-2.346317619E-1,-2.149993181E0,9.773131371E0
1.301390332E1,-2.681505978E-1,-2.128445387E0,9.689333916E0
1.302397406E1,-2.609679997E-1,-2.140416384E0,9.639056206E0
1.303401429E1,-2.394201756E-1,-2.133233786E0,9.670180321E0
1.304408504E1,-2.418143749E-1,-2.128445387E0,9.682151794E0
1.305412526E1,-2.226607651E-1,-2.118868589E0,9.660603523E0
1.306419601E1,-2.178723514E-1,-2.094926596E0,9.651026726E0
1.307423624E1,-2.202665508E-1,-2.118868589E0,9.629479408E0
1.308430699E1,-2.466027737E-1,-2.099714994E0,9.648633003E0
1.309434721E1,-2.106897533E-1,-2.104503393E0,9.624691010E0
1.310441796E1,-2.537853718E-1,-2.078166962E0,9.677363396E0
1.311445819E1,-2.466027737E-1,-2.042253971E0,9.706093788E0
1.312452893E1,-2.250549644E-1,-2.008735180E0,9.698910713E0
1.313456916E1,-2.106897533E-1,-1.975216389E0,9.734824181E0
1.314460939E1,-2.082955539E-1,-1.972822189E0,9.725247383E0
1.315468014E1,-2.178723514E-1,-1.960851192E0,9.710882187E0
1.316472036E1,-2.154781520E-1,-1.944091797E0,9.696516991E0
1.317479111E1,-2.346317619E-1,-1.924938202E0,9.684545517E0
1.318483134E1,-2.489969730E-1,-1.941697598E0,9.742006302E0
1.319490208E1,-2.178723514E-1,-1.857900500E0,9.710882187E0
1.320494231E1,-2.801215947E-1,-1.867477298E0,9.789890289E0
1.321501306E1,-2.466027737E-1,-1.853112102E0,9.689333916E0
1.322505329E1,-2.202665508E-1,-1.805228114E0,9.665391922E0
1.323512403E1,-2.489969730E-1,-1.750161409E0,9.653421402E0
1.324516426E1,-1.819593310E-1,-1.740584612E0,9.732429504E0
1.325523501E1,-2.274491638E-1,-1.745373011E0,9.854534149E0
1.326527524E1,-1.915361285E-1,-1.719036818E0,9.825803757E0
1.327531546E1,-1.987187415E-1,-1.745373011E0,9.837775230E0
1.328538621E1,-2.489969730E-1,-1.728613615E0,9.828198433E0
1.329542644E1,-2.322375625E-1,-1.711854219E0,9.746794701E0
1.330549718E1,-2.322375625E-1,-1.704671621E0,9.672574997E0
1.331553741E1,-2.394201756E-1,-1.697489023E0,9.617507935E0
1.332560816E1,-2.250549644E-1,-1.678335428E0,9.694122314E0
1.333564839E1,-2.154781520E-1,-1.675941229E0,9.895236015E0
1.334568861E1,-2.202665508E-1,-1.671152830E0,1.005804157E1
1.335575936E1,-2.585737705E-1,-1.671152830E0,9.921571732E0
1.336579959E1,-2.489969730E-1,-1.678335428E0,9.662998199E0
1.337587033E1,-2.777273953E-1,-1.695094824E0,9.433155060E0
1.338591056E1,-2.585737705E-1,-1.668758631E0,9.425971985E0
1.339598131E1,-2.298433632E-1,-1.604115129E0,9.617507935E0
1.340602154E1,-2.035071403E-1,-1.570596337E0,9.842563629E0
1.341609228E1,-1.819593310E-1,-1.541865945E0,1.001494598E1
1.342613251E1,-1.915361285E-1,-1.527500629E0,1.005085850E1
1.343620326E1,-1.628057212E-1,-1.479616642E0,9.986215591E0
1.344624348E1,-2.154781520E-1,-1.477222443E0,9.859322548E0
1.345631423E1,-2.178723514E-1,-1.484405041E0,9.742006302E0
1.346635446E1,-2.322375625E-1,-1.477222443E0,9.703699112E0
1.347642520E1,-2.202665508E-1,-1.462857246E0,9.756371498E0
1.348646543E1,-2.082955539E-1,-1.434126854E0,9.835380554E0
1.349650566E1,-2.154781520E-1,-1.410184860E0,9.835380554E0
1.350657641E1,-2.274491638E-1,-1.362300754E0,9.813833237E0
1.351661664E1,-2.298433632E-1,-1.323993564E0,9.821015358E0
1.352668738E1,-2.178723514E-1,-1.314416766E0,9.792284966E0
1.353672761E1,-2.178723514E-1,-1.300051570E0,9.797073364E0
1.354679836E1,-2.681505978E-1,-1.300051570E0,9.758766174E0
1.355683858E1,-2.130839527E-1,-1.300051570E0,9.765948296E0
1.356687881E1,-2.274491638E-1,-1.268926859E0,9.832986832E0
1.357694956E1,-2.370259613E-1,-1.259350061E0,9.880870819E0
1.358698979E1,-2.130839527E-1,-1.259350061E0,9.940725327E0
1.359706053E1,-2.059013397E-1,-1.242590666E0,9.940725327E0
1.360710076E1,-1.963245422E-1,-1.216254473E0,9.864110947E0
1.361717151E1,-2.059013397E-1,-1.233013868E0,9.706093788E0
1.362721174E1,-1.867477298E-1,-1.240196466E0,9.670180321E0
1.363725196E1,-1.867477298E-1,-1.237802267E0,9.734824181E0
1.364732271E1,-2.154781520E-1,-1.259350061E0,9.785101891E0
1.365736294E1,-2.011129409E-1,-1.237802267E0,9.809044838E0
1.366743368E1,-2.250549644E-1,-1.211466074E0,9.849745750E0
1.367747391E1,-2.274491638E-1,-1.194706678E0,9.883264542E0
1.368754466E1,-2.418143749E-1,-1.180341482E0,9.844957352E0
1.369758489E1,-2.274491638E-1,-1.161187768E0,9.825803757E0
1.370765563E1,-2.274491638E-1,-1.132457376E0,9.828198433E0
1.371769586E1,-2.202665508E-1,-1.132457376E0,9.835380554E0
1.372773609E1,-2.250549644E-1,-1.158793569E0,9.823410034E0
1.373780683E1,-2.059013397E-1,-1.132457376E0,9.799467087E0
1.374784706E1,-2.250549644E-1,-1.094150186E0,9.830592155E0
1.375791781E1,-2.250549644E-1,-1.070208192E0,9.856928825E0
1.376795804E1,-2.250549644E-1,-1.070208192E0,9.828198433E0
1.377802878E1,-2.178723514E-1,-1.015141487E0,9.816226959E0
1.378806901E1,-2.298433632E-1,-1.010353088E0,9.832986832E0
1.379813976E1,-2.346317619E-1,-9.792284966E-1,9.856928825E0
1.380817999E1,-2.154781520E-1,-9.888052940E-1,9.890447617E0
1.381825073E1,-2.178723514E-1,-9.911994934E-1,9.878476143E0
1.382829096E1,-2.418143749E-1,-1.000776291E0,9.849745750E0
1.383833119E1,-2.370259613E-1,-1.005564690E0,9.844957352E0
1.384840194E1,-2.394201756E-1,-9.768342972E-1,9.852140427E0
1.385844216E1,-2.609679997E-1,-9.624691010E-1,9.856928825E0
1.386851291E1,-2.442085743E-1,-9.409212470E-1,9.890447617E0
1.387855314E1,-2.466027737E-1,-9.241618514E-1,9.804255486E0
1.388862388E1,-1.843535304E-1,-8.571242094E-1,9.816226959E0
1.389866411E1,-2.322375625E-1,-8.499416113E-1,9.849745750E0
1.390873486E1,-2.011129409E-1,-8.714894056E-1,9.811438560E0
1.391877509E1,-2.346317619E-1,-8.978256583E-1,9.847352028E0
1.392881531E1,-2.059013397E-1,-8.523358107E-1,9.859322548E0
1.393888606E1,-2.178723514E-1,-8.762778044E-1,9.866505623E0
1.394892629E1,-2.154781520E-1,-9.050082564E-1,9.832986832E0
1.395899703E1,-2.011129409E-1,-8.930372596E-1,9.842563629E0
1.396903726E1,-2.154781520E-1,-8.571242094E-1,9.878476143E0
1.397910801E1,-2.059013397E-1,-8.475474119E-1,9.854534149E0
1.398914824E1,-2.226607651E-1,-8.236053586E-1,9.864110947E0
1.399921898E1,-2.202665508E-1,-8.259995580E-1,9.880870819E0
1.400925921E1,-1.891419291E-1,-8.116343617E-1,9.847352028E0
1.401932996E1,-2.346317619E-1,-7.972691655E-1,9.797073364E0
1.402937019E1,-2.370259613E-1,-7.972691655E-1,9.813833237E0
1.403944093E1,-2.130839527E-1,-7.829039693E-1,9.945513725E0
1.404948116E1,-2.202665508E-1,-7.924807668E-1,1.002212811E1
1.405952139E1,-2.011129409E-1,-7.733271718E-1,1.000058079E1
1.406959213E1,-1.987187415E-1,-7.517793179E-1,9.900024414E0
1.407963236E1,-2.322375625E-1,-7.038952708E-1,9.871294022E0
1.408970311E1,-2.274491638E-1,-6.871358752E-1,9.911994934E0
1.409974334E1,-2.489969730E-1,-6.727706790E-1,9.878476143E0
1.410981408E1,-2.561795712E-1,-6.943184733E-1,9.821015358E0
1.411985431E1,-2.609679997E-1,-7.134721279E-1,9.840168953E0
1.412992506E1,-2.633621991E-1,-7.062895298E-1,9.995792389E0
1.413996528E1,-2.442085743E-1,-6.847416759E-1,1.023281765E1
1.415000551E1,-2.537853718E-1,-6.823474765E-1,1.027351952E1
1.416007626E1,-2.657563984E-1,-6.799532771E-1,1.008198357E1
1.417011649E1,-2.992752194E-1,-6.703764796E-1,9.837775230E0
1.418018723E1,-2.035071403E-1,-7.134721279E-1,9.818621635E0
1.419022746E1,-3.256114423E-1,-6.560112834E-1,9.708487511E0
1.420029821E1,-2.466027737E-1,-6.440402865E-1,9.722852707E0
1.421033844E1,-2.202665508E-1,-6.751648784E-1,9.818621635E0
1.422037866E1,-1.963245422E-1,-7.015010715E-1,9.730035782E0
1.423044941E1,-1.340752989E-1,-7.493851185E-1,9.703699112E0
1.424048964E1,-2.442085743E-1,-8.044517636E-1,9.583989143E0
1.425056038E1,-2.442085743E-1,-9.265560508E-1,9.641449928E0
1.426060061E1,-3.423708379E-1,-1.051054597E0,9.739612579E0
1.427067136E1,-3.519476354E-1,-1.125274777E0,9.732429504E0
1.428071159E1,-3.663128614E-1,-1.216254473E0,9.749189377E0
1.429078233E1,-3.399766386E-1,-1.247379065E0,9.849745750E0
1.430082256E1,-3.160346150E-1,-1.256955862E0,9.919178009E0
1.431086279E1,-2.992752194E-1,-1.280897856E0,9.947908401E0
1.432093353E1,-2.466027737E-1,-1.300051570E0,9.947908401E0
1.433097376E1,-2.370259613E-1,-1.292868972E0,9.935936928E0
1.434104451E1,-2.418143749E-1,-1.280897856E0,9.868899345E0
1.435108474E1,-2.681505978E-1,-1.254561663E0,9.825803757E0
1.436115548E1,-2.849099934E-1,-1.187524080E0,9.813833237E0
1.437119571E1,-2.346317619E-1,-1.130063176E0,9.861717224E0
1.438123594E1,-2.370259613E-1,-1.110909581E0,9.938331604E0
1.439130669E1,-2.777273953E-1,-1.082179189E0,9.943120003E0
1.440134692E1,-3.160346150E-1,-1.067813993E0,9.959878922E0
1.441141766E1,-3.591302633E-1,-1.053448796E0,9.835380554E0
1.442145789E1,-3.687070608E-1,-1.074996591E0,9.751583099E0
1.443152863E1,-3.423708379E-1,-1.089361787E0,9.737217903E0
1.444156886E1,-3.399766386E-1,-1.115697980E0,9.768342972E0
1.445160909E1,-3.160346150E-1,-1.182735682E0,9.811438560E0
1.446167984E1,-2.992752194E-1,-1.225831270E0,9.821015358E0
1.447172007E1,-2.777273953E-1,-1.271321058E0,9.813833237E0
1.448179081E1,-3.016694188E-1,-1.307234168E0,9.792284966E0
1.449183104E1,-3.232172430E-1,-1.376665950E0,9.811438560E0
1.450190179E1,-2.873041928E-1,-1.455674648E0,9.849745750E0
1.451194201E1,-3.495534360E-1,-1.515529633E0,9.811438560E0
1.452201276E1,-3.303998411E-1,-1.580173135E0,9.722852707E0
1.453205299E1,-3.303998411E-1,-1.673547029E0,9.662998199E0
1.454209322E1,-3.591302633E-1,-1.752555609E0,9.636661530E0
1.455216396E1,-3.639186621E-1,-1.793257117E0,9.653421402E0
1.456220419E1,-3.878606856E-1,-1.781286120E0,9.737217903E0
1.457227494E1,-4.070142806E-1,-1.769315004E0,9.756371498E0
1.458231516E1,-3.711012602E-1,-1.802833915E0,9.792284966E0
1.459238591E1,-3.543418646E-1,-1.833958507E0,9.780313492E0
1.460242614E1,-3.878606856E-1,-1.833958507E0,9.737217903E0
1.461249688E1,-3.998316824E-1,-1.819593310E0,9.684545517E0
1.462253711E1,-3.878606856E-1,-1.798045516E0,9.655815125E0
1.463257734E1,-3.782838583E-1,-1.795651317E0,9.715670586E0
1.464264809E1,-3.950432837E-1,-1.810016513E0,9.813833237E0
1.465268832E1,-3.974374831E-1,-1.805228114E0,9.806650162E0
1.466275906E1,-3.854664862E-1,-1.776497602E0,9.730035782E0
1.467279929E1,-3.854664862E-1,-1.764526606E0,9.730035782E0
1.468287004E1,-3.974374831E-1,-1.783680320E0,9.734824181E0
1.469291026E1,-4.070142806E-1,-1.817199111E0,9.734824181E0
1.470295049E1,-3.878606856E-1,-1.802833915E0,9.698910713E0
1.471302124E1,-3.974374831E-1,-1.826775908E0,9.698910713E0
1.472306147E1,-3.902548850E-1,-1.833958507E0,9.744400978E0
1.473313221E1,-3.998316824E-1,-1.850717902E0,9.773131371E0
1.474317244E1,-3.663128614E-1,-1.874659896E0,9.816226959E0
1.475324319E1,-3.567360640E-1,-1.872265697E0,9.806650162E0
1.476328342E1,-3.950432837E-1,-1.917755604E0,9.763554573E0
1.477335416E1,-3.926490843E-1,-1.886630893E0,9.677363396E0
1.478339439E1,-4.046200812E-1,-1.893813491E0,9.622296333E0
1.479343462E1,-4.046200812E-1,-1.941697598E0,9.591172218E0
1.480350536E1,-3.950432837E-1,-1.944091797E0,9.579200745E0
1.481354559E1,-3.519476354E-1,-2.020706177E0,9.627084732E0
1.482361634E1,-3.543418646E-1,-2.099714994E0,9.732429504E0
1.483365657E1,-3.974374831E-1,-2.130839586E0,9.900024414E0
1.484369680E1,-4.022258818E-1,-2.106897593E0,9.962273598E0
1.485376754E1,-3.854664862E-1,-2.133233786E0,9.789890289E0
1.486380777E1,-4.141969085E-1,-2.128445387E0,9.593565941E0
1.487387851E1,-4.046200812E-1,-2.114080191E0,9.488221169E0
1.488391874E1,-4.213795066E-1,-2.126051188E0,9.378087997E0
1.489398949E1,-3.711012602E-1,-2.116474390E0,9.397241592E0
1.490402972E1,-3.974374831E-1,-2.128445387E0,9.631873131E0
1.491406995E1,-4.189853072E-1,-2.138022184E0,9.916783333E0
1.492414069E1,-4.261679053E-1,-2.128445387E0,1.000297451E1
1.493418092E1,-4.596867263E-1,-2.133233786E0,9.868899345E0
1.494425167E1,-4.932055473E-1,-2.157175779E0,9.665391922E0
1.495429189E1,-4.716577232E-1,-2.145204782E0,9.504981041E0
1.496436264E1,-4.644751251E-1,-2.205059767E0,9.392453194E0
1.497440287E1,-4.501099288E-1,-2.214636564E0,9.382876396E0
1.498447361E1,-4.525041282E-1,-2.221819162E0,9.435548782E0
1.499451384E1,-4.333505034E-1,-2.281674147E0,9.636661530E0
1.500455407E1,-4.692635238E-1,-2.308010340E0,9.809044838E0
1.501462482E1,-4.644751251E-1,-2.298433542E0,9.847352028E0
1.502466504E1,-4.429273009E-1,-2.298433542E0,9.746794701E0
1.503473579E1,-4.165911078E-1,-2.284068346E0,9.560047150E0
1.504477602E1,-4.118026793E-1,-2.308010340E0,9.457097054E0
1.505481625E1,-4.022258818E-1,-2.334346771E0,9.471462250E0
1.506488699E1,-3.782838583E-1,-2.358288765E0,9.610325813E0
1.507492722E1,-3.758896589E-1,-2.363077164E0,9.722852707E0
1.508499797E1,-4.165911078E-1,-2.370259762E0,9.725247383E0
1.509503820E1,-4.261679053E-1,-2.379836559E0,9.648633003E0
1.510507842E1,-4.165911078E-1,-2.379836559E0,9.588777542E0
1.511514917E1,-4.285621047E-1,-2.346317768E0,9.574412346E0
1.512518940E1,-3.950432837E-1,-2.319981337E0,9.574412346E0
1.513526014E1,-4.309563041E-1,-2.329558372E0,9.610325813E0
1.514530037E1,-3.950432837E-1,-2.329558372E0,9.591172218E0
1.515537112E1,-3.926490843E-1,-2.322375536E0,9.545681953E0
1.516541135E1,-4.309563041E-1,-2.367865562E0,9.514557838E0
1.517548209E1,-4.309563041E-1,-2.394201756E0,9.524134636E0
1.518552232E1,-3.878606856E-1,-2.449268341E0,9.607931137E0
1.519556255E1,-4.908113480E-1,-2.442085743E0,9.646238327E0
1.520563330E1,-4.572925270E-1,-2.485181332E0,9.636661530E0
1.521567352E1,-4.692635238E-1,-2.521094322E0,9.557653427E0
1.522574427E1,-4.740519226E-1,-2.523488522E0,9.452308655E0
1.523578450E1,-4.620809257E-1,-2.578555346E0,9.447520256E0
1.524582473E1,-5.075707436E-1,-2.585737944E0,9.490615845E0
1.525589547E1,-4.596867263E-1,-2.631227732E0,9.557653427E0
1.526593570E1,-5.123591423E-1,-2.679111719E0,9.615114212E0
1.527600645E1,-5.027823448E-1,-2.712630510E0,9.607931137E0
1.528604667E1,-5.243301988E-1,-2.741360903E0,9.497797966E0
1.529611742E1,-5.027823448E-1,-2.719813108E0,9.392453194E0
1.530615765E1,-4.979939461E-1,-2.715024710E0,9.284713745E0
1.531619788E1,-4.812345505E-1,-2.705447912E0,9.354146004E0
1.532626862E1,-5.075707436E-1,-2.700659513E0,9.483432770E0
1.533630885E1,-4.932055473E-1,-2.712630510E0,9.572018623E0
1.534637960E1,-5.051765442E-1,-2.717418909E0,9.612719536E0
1.535641983E1,-5.817909837E-1,-2.738966703E0,9.610325813E0
1.536649057E1,-4.453215301E-1,-2.750937700E0,9.643844604E0
1.537653080E1,-5.386953950E-1,-2.760514498E0,9.624691010E0
1.538660155E1,-5.291185975E-1,-2.758120298E0,9.540893555E0
1.539664178E1,-5.003881454E-1,-2.712630510E0,9.423578262E0
1.540671252E1,-5.099649429E-1,-2.667140722E0,9.370905876E0
1.541675275E1,-5.171475410E-1,-2.700659513E0,9.418789864E0
1.542679298E1,-5.147533417E-1,-2.726995707E0,9.512163162E0
1.543686372E1,-5.219359994E-1,-2.738966703E0,9.574412346E0
1.544690395E1,-5.363011956E-1,-2.750937700E0,9.574412346E0
1.545697470E1,-5.410895944E-1,-2.750937700E0,9.531316757E0
1.546701493E1,-5.147533417E-1,-2.755726099E0,9.490615845E0
1.547708567E1,-4.979939461E-1,-2.782062292E0,9.488221169E0
1.548712590E1,-4.836287498E-1,-2.772485495E0,9.576807022E0
1.549719665E1,-4.596867263E-1,-2.817975283E0,9.607931137E0
1.550723687E1,-4.955997467E-1,-2.810792685E0,9.576807022E0
1.551730762E1,-5.075707436E-1,-2.820369720E0,9.457097054E0
1.552734785E1,-5.602431893E-1,-2.849100113E0,9.133879662E0
1.553741859E1,-4.812345505E-1,-2.844311714E0,9.045293808E0
1.554745882E1,-5.147533417E-1,-2.825158119E0,9.117119789E0
1.555752957E1,-4.644751251E-1,-2.801215887E0,9.315838814E0
1.556756980E1,-5.027823448E-1,-2.822763920E0,9.576807022E0
1.557761002E1,-4.884171486E-1,-2.837129116E0,9.658209801E0
1.558768077E1,-5.075707436E-1,-2.846705914E0,9.643844604E0
1.559772100E1,-5.051765442E-1,-2.846705914E0,9.531316757E0
1.560779174E1,-4.668693244E-1,-2.827552319E0,9.332598686E0
1.561783197E1,-4.812345505E-1,-2.834734917E0,9.236829758E0
1.562790272E1,-5.027823448E-1,-2.841917515E0,9.313444138E0
1.563794295E1,-5.147533417E-1,-2.827552319E0,9.435548782E0
1.564801369E1,-5.410895944E-1,-2.801215887E0,9.524134636E0
1.565805392E1,-5.219359994E-1,-2.784456491E0,9.509769440E0
1.566812467E1,-4.979939461E-1,-2.748543501E0,9.466673851E0
1.567816490E1,-4.525041282E-1,-2.734178305E0,9.471462250E0
1.568820512E1,-4.237737060E-1,-2.722207308E0,9.514557838E0
1.569827587E1,-4.046200812E-1,-2.719813108E0,9.488221169E0
1.570831610E1,-3.950432837E-1,-2.700659513E0,9.481039047E0
1.571838685E1,-4.046200812E-1,-2.671929121E0,9.461885452E0
1.572842707E1,-4.261679053E-1,-2.626439333E0,9.464279175E0
1.573849782E1,-4.620809257E-1,-2.561795712E0,9.560047150E0
1.574853805E1,-4.955997467E-1,-2.513911724E0,9.679757118E0
1.575860879E1,-4.668693244E-1,-2.492363930E0,9.775525093E0
1.576864902E1,-4.525041282E-1,-2.489969730E0,9.698910713E0
1.577871977E1,-4.548983276E-1,-2.521094322E0,9.483432770E0
1.578876000E1,-4.309563041E-1,-2.525882721E0,9.327810287E0
1.579882091E1,-4.261679053E-1,-2.501940727E0,9.248801231E0
1.580886113E1,-4.070142806E-1,-2.475604534E0,9.378087997E0
1.581893188E1,-3.950432837E-1,-2.456450939E0,9.576807022E0
1.582897210E1,-4.261679053E-1,-2.442085743E0,9.739612579E0
1.583901233E1,-4.453215301E-1,-2.410961151E0,9.787496567E0
1.584908307E1,-4.501099288E-1,-2.398990154E0,9.679757118E0
1.585912330E1,-4.165911078E-1,-2.348711967E0,9.500192642E0
1.586919404E1,-4.165911078E-1,-2.336740971E0,9.471462250E0
1.587923427E1,-3.974374831E-1,-2.372653961E0,9.516951561E0
1.588930501E1,-3.711012602E-1,-2.382230759E0,9.583989143E0
1.589934524E1,-4.022258818E-1,-2.387019157E0,9.667786598E0
1.590941598E1,-4.094084799E-1,-2.387019157E0,9.653421402E0
1.591945621E1,-3.567360640E-1,-2.348711967E0,9.682151794E0
1.592952695E1,-3.854664862E-1,-2.284068346E0,9.651026726E0
1.593956717E1,-3.926490843E-1,-2.219424963E0,9.627084732E0
1.594963792E1,-3.687070608E-1,-2.205059767E0,9.576807022E0
1.595967814E1,-3.782838583E-1,-2.197877169E0,9.586383820E0
1.596974889E1,-3.854664862E-1,-2.159569979E0,9.593565941E0
1.597978911E1,-3.902548850E-1,-2.145204782E0,9.610325813E0
1.598985986E1,-3.830722570E-1,-2.121262789E0,9.662998199E0
1.599990008E1,-3.830722570E-1,-2.099714994E0,9.718064308E0
1.600997083E1,-4.070142806E-1,-2.059013367E0,9.713275909E0
1.602001105E1,-3.734954596E-1,-2.056619167E0,9.679757118E0
1.603008180E1,-4.165911078E-1,-2.037465572E0,9.658209801E0
1.604012202E1,-3.974374831E-1,-2.044648170E0,9.658209801E0
1.605019277E1,-4.070142806E-1,-1.987187386E0,9.617507935E0
1.606023299E1,-3.902548850E-1,-1.991975784E0,9.569623947E0
1.607030374E1,-3.663128614E-1,-1.960851192E0,9.631873131E0
1.608034396E1,-3.495534360E-1,-1.948880196E0,9.734824181E0
1.609038419E1,-3.567360640E-1,-1.927332401E0,9.797073364E0
1.610045493E1,-3.591302633E-1,-1.968033791E0,9.785101891E0
1.611049516E1,-3.280056417E-1,-1.944091797E0,9.742006302E0
1.612056590E1,-3.591302633E-1,-1.915361404E0,9.662998199E0
1.613060613E1,-3.902548850E-1,-1.929726601E0,9.564835548E0
1.614067687E1,-3.639186621E-1,-1.922544003E0,9.581595421E0
1.615071710E1,-3.639186621E-1,-1.927332401E0,9.667786598E0
1.616078784E1,-3.423708379E-1,-1.893813491E0,9.844957352E0
1.617082807E1,-3.471592367E-1,-1.860294700E0,9.938331604E0
1.618089881E1,-3.615244627E-1,-1.853112102E0,9.782708168E0
1.619093904E1,-3.711012602E-1,-1.855506301E0,9.643844604E0
1.620100978E1,-4.357447028E-1,-1.814804912E0,9.320627213E0
1.621105000E1,-3.687070608E-1,-1.774103403E0,9.361329079E0
1.622112075E1,-4.070142806E-1,-1.766920805E0,9.560047150E0
1.623116097E1,-3.351882398E-1,-1.759738207E0,9.797073364E0
1.624123172E1,-3.495534360E-1,-1.750161409E0,1.008677197E1
1.625127194E1,-3.543418646E-1,-1.723825216E0,1.008677197E1
1.626134269E1,-3.280056417E-1,-1.704671621E0,1.002931118E1
1.627138291E1,-3.758896589E-1,-1.687912226E0,9.830592155E0
1.628142314E1,-3.543418646E-1,-1.687912226E0,9.689333916E0
1.629149388E1,-3.567360640E-1,-1.673547029E0,9.639056206E0
1.630153411E1,-3.567360640E-1,-1.668758631E0,9.646238327E0
1.631160485E1,-3.591302633E-1,-1.644816518E0,9.643844604E0
1.632164508E1,-3.615244627E-1,-1.616086125E0,9.674968719E0
1.633171582E1,-3.351882398E-1,-1.623268723E0,9.713275909E0
1.634175605E1,-3.184288144E-1,-1.584961534E0,9.753977776E0
1.635182679E1,-3.136404157E-1,-1.596932530E0,9.787496567E0
1.636186702E1,-3.040636182E-1,-1.582567334E0,9.782708168E0
1.637193776E1,-3.064578176E-1,-1.594538331E0,9.761159897E0
1.638197799E1,-2.896983922E-1,-1.594538331E0,9.734824181E0
1.639204873E1,-2.825157940E-1,-1.604115129E0,9.794678688E0
1.640208896E1,-3.016694188E-1,-1.577778935E0,9.842563629E0
1.641215970E1,-3.064578176E-1,-1.527500629E0,9.873687744E0
1.642219992E1,-3.303998411E-1,-1.515529633E0,9.825803757E0
1.643227067E1,-3.064578176E-1,-1.460463047E0,9.710882187E0
1.644231090E1,-3.088520169E-1,-1.446097851E0,9.646238327E0
1.645235112E1,-2.920926213E-1,-1.417367458E0,9.665391922E0
1.646242186E1,-3.064578176E-1,-1.431732655E0,9.739612579E0
1.647246209E1,-3.040636182E-1,-1.417367458E0,9.830592155E0
1.648253283E1,-2.968810201E-1,-1.403002143E0,9.847352028E0
1.649257306E1,-2.992752194E-1,-1.369483352E0,9.821015358E0
1.650264380E1,-3.208230138E-1,-1.403002143E0,9.787496567E0
1.651268403E1,-3.375824392E-1,-1.376665950E0,9.787496567E0
1.652275477E1,-3.208230138E-1,-1.426944256E0,9.775525093E0
1.653279500E1,-3.208230138E-1,-1.400607944E0,9.789890289E0
1.654286574E1,-3.136404157E-1,-1.398213744E0,9.789890289E0
1.655290597E1,-3.160346150E-1,-1.391031146E0,9.825803757E0
1.656294619E1,-3.160346150E-1,-1.367089152E0,9.832986832E0
1.657301694E1,-3.016694188E-1,-1.350329757E0,9.830592155E0
1.658305716E1,-2.849099934E-1,-1.357512355E0,9.821015358E0
1.659312791E1,-3.208230138E-1,-1.352723956E0,9.813833237E0
1.660316813E1,-3.256114423E-1,-1.343147159E0,9.801861763E0
1.661323888E1,-3.351882398E-1,-1.335964561E0,9.775525093E0
1.662327910E1,-3.040636182E-1,-1.309628367E0,9.787496567E0
1.663334985E1,-3.208230138E-1,-1.288080573E0,9.782708168E0
1.664339007E1,-3.040636182E-1,-1.254561663E0,9.773131371E0
1.665346082E1,-2.968810201E-1,-1.249773264E0,9.761159897E0
1.666350104E1,-3.208230138E-1,-1.240196466E0,9.806650162E0
1.667357179E1,-3.040636182E-1,-1.261744261E0,9.837775230E0
1.668361201E1,-3.280056417E-1,-1.259350061E0,9.866505623E0
1.669365224E1,-3.399766386E-1,-1.244984865E0,9.852140427E0
1.670372298E1,-3.375824392E-1,-1.228225470E0,9.830592155E0
1.671376321E1,-2.968810201E-1,-1.211466074E0,9.809044838E0
1.672383395E1,-2.992752194E-1,-1.189918280E0,9.799467087E0
1.673387418E1,-2.873041928E-1,-1.170764685E0,9.825803757E0
1.674394492E1,-2.657563984E-1,-1.134851575E0,9.821015358E0
1.675398515E1,-2.777273953E-1,-1.120486379E0,9.811438560E0
1.676402537E1,-2.801215947E-1,-1.132457376E0,9.830592155E0
1.677409612E1,-2.777273953E-1,-1.108515382E0,9.789890289E0
1.678413634E1,-3.136404157E-1,-1.086967587E0,9.801861763E0
1.679420708E1,-3.160346150E-1,-1.070208192E0,9.818621635E0
1.680424731E1,-2.992752194E-1,-1.058237195E0,9.854534149E0
1.681431806E1,-2.920926213E-1,-1.086967587E0,9.888052940E0
1.682435828E1,-2.920926213E-1,-1.074996591E0,9.919178009E0
1.683442902E1,-2.825157940E-1,-1.072602391E0,9.859322548E0
1.684446925E1,-2.873041928E-1,-1.039083481E0,9.852140427E0
1.685450948E1,-2.729389966E-1,-1.027112484E0,9.844957352E0
1.686458022E1,-2.920926213E-1,-1.000776291E0,9.756371498E0
1.687462045E1,-3.256114423E-1,-1.015141487E0,9.701305389E0
1.688469119E1,-3.184288144E-1,-1.019929886E0,9.780313492E0
1.689473142E1,-2.681505978E-1,-1.019929886E0,1.002931118E1
1.690480216E1,-2.657563984E-1,-1.022324085E0,1.016578007E1
1.691484238E1,-2.777273953E-1,-9.911994934E-1,9.988609314E0
1.692488261E1,-2.849099934E-1,-1.010353088E0,9.662998199E0
1.693495336E1,-3.160346150E-1,-1.019929886E0,9.390059471E0
1.694499358E1,-2.968810201E-1,-1.000776291E0,9.476250648E0
1.695506433E1,-2.920926213E-1,-9.672574997E-1,9.835380554E0
1.696510455E1,-2.944868207E-1,-9.361328483E-1,1.012986755E1
1.697517529E1,-2.705447972E-1,-9.241618514E-1,1.025675964E1
1.698521552E1,-2.609679997E-1,-9.145850539E-1,1.017535686E1
1.699525575E1,-2.681505978E-1,-9.074024558E-1,9.998186111E0
1.700532649E1,-2.681505978E-1,-9.145850539E-1,9.852140427E0
1.701536672E1,-2.801215947E-1,-8.978256583E-1,9.756371498E0
1.702543746E1,-3.040636182E-1,-8.858546019E-1,9.756371498E0
1.703547768E1,-3.256114423E-1,-8.834604025E-1,9.775525093E0
1.704554843E1,-3.327940404E-1,-8.834604025E-1,9.809044838E0
1.705558865E1,-3.208230138E-1,-8.978256583E-1,9.823410034E0
1.706562888E1,-2.968810201E-1,-8.882488012E-1,9.871294022E0
1.707569962E1,-3.160346150E-1,-9.169792533E-1,9.849745750E0
1.708573985E1,-3.256114423E-1,-9.385270476E-1,9.861717224E0
1.709581059E1,-3.088520169E-1,-9.313444495E-1,9.856928825E0
1.710585082E1,-3.327940404E-1,-9.241618514E-1,9.907206535E0
1.711592156E1,-3.160346150E-1,-9.169792533E-1,9.976638794E0
1.712596179E1,-3.016694188E-1,-9.026140571E-1,1.005564690E1
1.713603253E1,-2.777273953E-1,-9.121908545E-1,1.009395409E1
1.714607276E1,-3.064578176E-1,-8.882488012E-1,1.001255131E1
1.715611298E1,-3.327940404E-1,-8.834604025E-1,9.938331604E0
1.716618373E1,-3.184288144E-1,-8.619126081E-1,9.823410034E0
1.717622395E1,-3.303998411E-1,-8.619126081E-1,9.753977776E0
1.718629470E1,-3.112462163E-1,-8.355764151E-1,9.689333916E0
1.719633492E1,-3.160346150E-1,-8.475474119E-1,9.746794701E0
1.720640567E1,-3.519476354E-1,-8.906430602E-1,9.751583099E0
1.721644589E1,-2.873041928E-1,-9.337386489E-1,9.876082420E0
1.722651664E1,-3.591302633E-1,-9.816226959E-1,9.878476143E0
1.723655686E1,-2.920926213E-1,-1.043871999E0,9.885659218E0
1.724659709E1,-3.639186621E-1,-1.098938584E0,9.809044838E0
1.725666783E1,-3.112462163E-1,-1.130063176E0,9.770736694E0
1.726670806E1,-3.112462163E-1,-1.168370485E0,9.804255486E0
1.727677880E1,-3.591302633E-1,-1.177947283E0,9.787496567E0
1.728681903E1,-3.399766386E-1,-1.233013868E0,9.706093788E0
1.729685925E1,-3.351882398E-1,-1.240196466E0,9.732429504E0
1.730693000E1,-3.663128614E-1,-1.244984865E0,9.804255486E0
1.731697022E1,-3.758896589E-1,-1.273715258E0,9.909601212E0
1.732704097E1,-3.567360640E-1,-1.312022567E0,9.880870819E0
1.733708119E1,-3.471592367E-1,-1.331176162E0,9.825803757E0
1.734715194E1,-3.375824392E-1,-1.314416766E0,9.763554573E0
1.735719216E1,-3.687070608E-1,-1.343147159E0,9.730035782E0
1.736723239E1,-3.806780577E-1,-1.340752959E0,9.742006302E0
1.737730313E1,-4.285621047E-1,-1.355118155E0,9.768342972E0
1.738734336E1,-4.501099288E-1,-1.367089152E0,9.852140427E0
1.739741410E1,-4.213795066E-1,-1.357512355E0,9.859322548E0
1.740745433E1,-4.141969085E-1,-1.355118155E0,9.873687744E0
1.741749455E1,-3.591302633E-1,-1.314416766E0,9.871294022E0
1.742756530E1,-3.639186621E-1,-1.316810966E0,9.883264542E0
1.743760552E1,-3.734954596E-1,-1.333570361E0,9.859322548E0
1.744767627E1,-3.998316824E-1,-1.362300754E0,9.806650162E0
1.745771649E1,-3.974374831E-1,-1.424550056E0,9.785101891E0
1.746775672E1,-3.902548850E-1,-1.441309452E0,9.758766174E0
1.747782746E1,-4.118026793E-1,-1.467645645E0,9.765948296E0
1.748786769E1,-4.094084799E-1,-1.486799240E0,9.816226959E0
1.749793843E1,-4.237737060E-1,-1.513135433E0,9.837775230E0
1.750797866E1,-3.998316824E-1,-1.563413739E0,9.813833237E0
1.751804940E1,-4.189853072E-1,-1.563413739E0,9.768342972E0
1.752808963E1,-4.141969085E-1,-1.589749932E0,9.751583099E0
1.753812985E1,-4.261679053E-1,-1.613691926E0,9.753977776E0
1.754820060E1,-4.165911078E-1,-1.599326730E0,9.720458984E0
1.755824082E1,-4.333505034E-1,-1.661576033E0,9.722852707E0
1.756831157E1,-4.429273009E-1,-1.719036818E0,9.777919769E0
1.757835179E1,-4.381389022E-1,-1.735796213E0,9.811438560E0
1.758842254E1,-4.453215301E-1,-1.728613615E0,9.732429504E0
1.759846276E1,-4.596867263E-1,-1.754949808E0,9.682151794E0
1.760850299E1,-4.764461517E-1,-1.771709204E0,9.636661530E0
1.761857373E1,-4.429273009E-1,-1.778891921E0,9.605537415E0
1.762861396E1,-4.572925270E-1,-1.848323703E0,9.624691010E0
1.763868470E1,-4.501099288E-1,-1.903390408E0,9.811438560E0
1.764872493E1,-4.381389022E-1,-1.877054095E0,9.993397713E0
1.765879567E1,-4.740519226E-1,-1.893813491E0,9.878476143E0
1.766883590E1,-5.075707436E-1,-1.948880196E0,9.610325813E0
1.767887612E1,-4.908113480E-1,-1.939303398E0,9.452308655E0
1.768894687E1,-4.548983276E-1,-1.934514999E0,9.476250648E0
1.769898709E1,-4.118026793E-1,-1.884236693E0,9.605537415E0
1.770905784E1,-4.237737060E-1,-1.855506301E0,9.770736694E0
1.771909806E1,-3.878606856E-1,-1.841141105E0,9.931148529E0
1.772916880E1,-4.285621047E-1,-1.867477298E0,9.957485199E0
1.773920903E1,-4.357447028E-1,-1.877054095E0,9.864110947E0
1.774924926E1,-4.668693244E-1,-1.879448295E0,9.737217903E0
1.775932000E1,-4.740519226E-1,-1.879448295E0,9.655815125E0
1.776936023E1,-5.051765442E-1,-1.898601890E0,9.653421402E0
1.777943097E1,-4.932055473E-1,-1.905784607E0,9.677363396E0
1.778947120E1,-5.003881454E-1,-1.896207690E0,9.665391922E0
1.779954194E1,-4.740519226E-1,-1.889025092E0,9.655815125E0
1.780958217E1,-4.740519226E-1,-1.917755604E0,9.677363396E0
1.781962239E1,-4.692635238E-1,-1.946485996E0,9.739612579E0
1.782969314E1,-4.477157295E-1,-1.956062794E0,9.761159897E0
1.783973336E1,-4.405331016E-1,-1.970427990E0,9.756371498E0
1.784980410E1,-4.525041282E-1,-2.020706177E0,9.727641106E0
1.785984433E1,-4.429273009E-1,-2.039859772E0,9.624691010E0
1.786991508E1,-4.477157295E-1,-2.063801765E0,9.634267807E0
1.787995530E1,-4.572925270E-1,-2.080561161E0,9.698910713E0
1.788999553E1,-4.525041282E-1,-2.090138197E0,9.749189377E0
1.790006627E1,-4.668693244E-1,-2.121262789E0,9.674968719E0
1.791010650E1,-4.596867263E-1,-2.138022184E0,9.572018623E0
1.792017724E1,-4.764461517E-1,-2.142810583E0,9.607931137E0
1.793021747E1,-4.860229492E-1,-2.138022184E0,9.662998199E0
1.794025769E1,-4.860229492E-1,-2.149993181E0,9.653421402E0
1.795032844E1,-4.908113480E-1,-2.147598982E0,9.600749016E0
1.796036866E1,-4.884171486E-1,-2.147598982E0,9.593565941E0
1.797043940E1,-4.572925270E-1,-2.161964178E0,9.593565941E0
1.798047963E1,-4.477157295E-1,-2.166752577E0,9.615114212E0
1.799055037E1,-4.381389022E-1,-2.183511972E0,9.651026726E0
1.800059060E1,-4.525041282E-1,-2.185906172E0,9.674968719E0
1.801063083E1,-4.572925270E-1,-2.209848166E0,9.715670586E0
1.802070157E1,-4.548983276E-1,-2.238578558E0,9.684545517E0
1.803074180E1,-4.860229492E-1,-2.245761156E0,9.643844604E0
1.804081254E1,-5.003881454E-1,-2.233790159E0,9.595960617E0
1.805085277E1,-4.716577232E-1,-2.248155355E0,9.605537415E0
1.806089299E1,-4.860229492E-1,-2.236184359E0,9.634267807E0
1.807096373E1,-4.764461517E-1,-2.212242365E0,9.670180321E0
1.808100396E1,-4.548983276E-1,-2.248155355E0,9.686940193E0
1.809107470E1,-4.620809257E-1,-2.257732153E0,9.667786598E0
1.810111493E1,-4.692635238E-1,-2.281674147E0,9.593565941E0
1.811118567E1,-4.477157295E-1,-2.274491549E0,9.631873131E0
1.812122590E1,-4.668693244E-1,-2.260126352E0,9.672574997E0
1.813126613E1,-4.644751251E-1,-2.260126352E0,9.672574997E0
1.814133687E1,-4.716577232E-1,-2.286462545E0,9.622296333E0
1.815137710E1,-4.525041282E-1,-2.319981337E0,9.588777542E0
1.816144784E1,-4.501099288E-1,-2.308010340E0,9.631873131E0
1.817148807E1,-4.501099288E-1,-2.322375536E0,9.629479408E0
1.818155881E1,-5.123591423E-1,-2.303221941E0,9.495404243E0
1.819159904E1,-4.261679053E-1,-2.348711967E0,9.583989143E0
1.820163926E1,-4.788403511E-1,-2.363077164E0,9.643844604E0
1.821171000E1,-4.094084799E-1,-2.365471363E0,9.706093788E0
1.822175023E1,-4.141969085E-1,-2.391807556E0,9.765948296E0
1.823182097E1,-4.525041282E-1,-2.351106167E0,9.660603523E0
1.824186120E1,-4.261679053E-1,-2.336740971E0,9.627084732E0
1.825193194E1,-5.027823448E-1,-2.370259762E0,9.572018623E0
1.826197217E1,-4.453215301E-1,-2.398990154E0,9.533711433E0
1.827204291E1,-4.165911078E-1,-2.398990154E0,9.449913979E0
1.828208314E1,-4.070142806E-1,-2.442085743E0,9.461885452E0
1.829215388E1,-4.189853072E-1,-2.523488522E0,9.536105156E0
1.830219411E1,-3.902548850E-1,-2.521094322E0,9.773131371E0
1.831223433E1,-4.429273009E-1,-2.518700123E0,9.854534149E0
1.832230508E1,-4.716577232E-1,-2.549824715E0,9.627084732E0
1.833234530E1,-4.788403511E-1,-2.547430515E0,9.315838814E0
1.834241605E1,-4.572925270E-1,-2.559401512E0,9.229647636E0
1.835245627E1,-4.453215301E-1,-2.564189911E0,9.236829758E0
1.836252702E1,-4.501099288E-1,-2.583343744E0,9.423578262E0
1.837256724E1,-4.333505034E-1,-2.600103140E0,9.660603523E0
1.838260747E1,-4.788403511E-1,-2.578555346E0,9.868899345E0
1.839267821E1,-4.620809257E-1,-2.583343744E0,9.861717224E0
1.840271844E1,-4.836287498E-1,-2.597708941E0,9.555258751E0
1.841278918E1,-5.243301988E-1,-2.607285738E0,9.311050415E0
1.842282941E1,-5.386953950E-1,-2.602497339E0,9.291896820E0
1.843286963E1,-5.315127969E-1,-2.640804529E0,9.454702377E0
1.844294038E1,-4.955997467E-1,-2.636016130E0,9.622296333E0
1.845298060E1,-4.932055473E-1,-2.640804529E0,9.639056206E0
1.846305135E1,-4.955997467E-1,-2.657563925E0,9.646238327E0
1.847309157E1,-4.692635238E-1,-2.609679937E0,9.629479408E0
1.848313180E1,-4.692635238E-1,-2.566584110E0,9.593565941E0
1.849320254E1,-4.501099288E-1,-2.549824715E0,9.514557838E0
1.850324277E1,-4.381389022E-1,-2.554613113E0,9.454702377E0
1.851331351E1,-4.261679053E-1,-2.576161146E0,9.416395187E0
1.852335374E1,-4.094084799E-1,-2.564189911E0,9.531316757E0
1.853342448E1,-3.926490843E-1,-2.578555346E0,9.641449928E0
1.854346471E1,-3.663128614E-1,-2.557007313E0,9.648633003E0
1.855353545E1,-3.974374831E-1,-2.564189911E0,9.538499832E0
1.856357568E1,-4.094084799E-1,-2.564189911E0,9.392453194E0
1.857361590E1,-3.878606856E-1,-2.542642117E0,9.361329079E0
1.858368665E1,-3.615244627E-1,-2.511517525E0,9.390059471E0
1.859372687E1,-3.758896589E-1,-2.525882721E0,9.452308655E0
1.860379762E1,-3.830722570E-1,-2.545036316E0,9.516951561E0
1.861383784E1,-3.926490843E-1,-2.535459518E0,9.627084732E0
1.862390859E1,-3.926490843E-1,-2.554613113E0,9.677363396E0
1.863394881E1,-4.070142806E-1,-2.552218914E0,9.670180321E0
1.864398904E1,-3.974374831E-1,-2.557007313E0,9.528923035E0
1.865405978E1,-3.854664862E-1,-2.533065319E0,9.493009567E0
1.866410001E1,-3.998316824E-1,-2.533065319E0,9.461885452E0
1.867417075E1,-3.902548850E-1,-2.494758129E0,9.500192642E0
1.868421098E1,-3.806780577E-1,-2.492363930E0,9.526528358E0
1.869428172E1,-3.854664862E-1,-2.475604534E0,9.572018623E0
1.870432195E1,-3.711012602E-1,-2.444479942E0,9.658209801E0
1.871436217E1,-3.782838583E-1,-2.401384354E0,9.823410034E0
1.872443292E1,-3.758896589E-1,-2.358288765E0,9.897629738E0
1.873447314E1,-3.687070608E-1,-2.312798738E0,9.763554573E0
1.874454389E1,-3.639186621E-1,-2.260126352E0,9.598354340E0
1.875458411E1,-3.495534360E-1,-2.212242365E0,9.459490776E0
1.876465486E1,-3.447650373E-1,-2.166752577E0,9.323021889E0
1.877469508E1,-3.471592367E-1,-2.149993181E0,9.366117477E0
1.878473531E1,-3.615244627E-1,-2.133233786E0,9.536105156E0
1.879480605E1,-3.711012602E-1,-2.138022184E0,9.619902611E0
1.880484628E1,-3.782838583E-1,-2.147598982E0,9.706093788E0
1.881491702E1,-3.663128614E-1,-2.154781580E0,9.730035782E0
1.882495725E1,-3.950432837E-1,-2.164358377E0,9.773131371E0
1.883502799E1,-4.118026793E-1,-2.104503393E0,9.734824181E0
1.884506822E1,-3.926490843E-1,-2.078166962E0,9.665391922E0
1.885513896E1,-3.303998411E-1,-2.054224968E0,9.631873131E0
1.886517919E1,-3.280056417E-1,-2.047042370E0,9.667786598E0
1.887521941E1,-3.160346150E-1,-2.075772762E0,9.715670586E0
1.888529016E1,-3.112462163E-1,-2.032677174E0,9.732429504E0
1.889533038E1,-3.064578176E-1,-1.987187386E0,9.720458984E0
1.890540112E1,-3.399766386E-1,-1.994369984E0,9.691728592E0
1.891544135E1,-3.758896589E-1,-1.980004787E0,9.655815125E0
1.892551209E1,-3.423708379E-1,-1.965639591E0,9.583989143E0
1.893555232E1,-3.375824392E-1,-1.970427990E0,9.643844604E0
1.894562306E1,-3.040636182E-1,-1.941697598E0,9.756371498E0
1.895566329E1,-2.968810201E-1,-1.915361404E0,9.988609314E0
1.896570352E1,-3.136404157E-1,-1.874659896E0,9.921571732E0
1.897577426E1,-3.232172430E-1,-1.845929503E0,9.557653427E0
1.898581448E1,-3.184288144E-1,-1.819593310E0,9.356540680E0
1.899588523E1,-3.351882398E-1,-1.783680320E0,9.342175484E0
1.900592545E1,-2.825157940E-1,-1.731007814E0,9.488221169E0
1.901599620E1,-2.896983922E-1,-1.697489023E0,9.710882187E0
1.902603642E1,-2.801215947E-1,-1.678335428E0,9.967061996E0
1.903607665E1,-2.681505978E-1,-1.663970232E0,1.016099167E1
1.904614739E1,-2.896983922E-1,-1.666364431E0,1.016578007E1
1.905618762E1,-2.849099934E-1,-1.635239720E0,1.000297451E1
1.906625836E1,-2.513911724E-1,-1.589749932E0,9.797073364E0
1.907629859E1,-2.513911724E-1,-1.572990537E0,9.607931137E0
1.908633882E1,-2.944868207E-1,-1.563413739E0,9.557653427E0
1.909640956E1,-2.896983922E-1,-1.587355733E0,9.600749016E0
1.910644979E1,-3.136404157E-1,-1.561019540E0,9.677363396E0
1.911652053E1,-3.184288144E-1,-1.541865945E0,9.727641106E0
1.912656075E1,-2.896983922E-1,-1.546654344E0,9.756371498E0
1.913663150E1,-2.944868207E-1,-1.539471745E0,9.806650162E0
1.914667172E1,-2.777273953E-1,-1.553836942E0,9.842563629E0
1.915674247E1,-2.561795712E-1,-1.572990537E0,9.806650162E0
1.916678269E1,-2.394201756E-1,-1.575384736E0,9.761159897E0
1.917682292E1,-2.489969730E-1,-1.563413739E0,9.756371498E0
1.918689366E1,-2.585737705E-1,-1.556231141E0,9.792284966E0
1.919693389E1,-2.202665508E-1,-1.551442742E0,9.888052940E0
1.920700463E1,-3.088520169E-1,-1.484405041E0,9.816226959E0
1.921704486E1,-2.322375625E-1,-1.491587639E0,9.749189377E0
1.922711560E1,-2.681505978E-1,-1.467645645E0,9.727641106E0
1.923715583E1,-2.537853718E-1,-1.434126854E0,9.715670586E0
1.924719605E1,-2.154781520E-1,-1.426944256E0,9.813833237E0
1.925726680E1,-2.944868207E-1,-1.391031146E0,9.773131371E0
1.926730702E1,-2.202665508E-1,-1.403002143E0,9.868899345E0
1.927737777E1,-3.112462163E-1,-1.347935557E0,9.943120003E0
1.928741799E1,-2.418143749E-1,-1.319205165E0,9.885659218E0
1.929745822E1,-2.705447972E-1,-1.338358760E0,9.823410034E0
1.930752896E1,-2.633621991E-1,-1.326387763E0,9.801861763E0
1.931756919E1,-2.489969730E-1,-1.331176162E0,9.787496567E0
1.932763993E1,-2.657563984E-1,-1.326387763E0,9.780313492E0
1.933768016E1,-2.633621991E-1,-1.288080573E0,9.789890289E0
1.934775090E1,-2.418143749E-1,-1.280897856E0,9.789890289E0
1.935779113E1,-2.561795712E-1,-1.290474772E0,9.809044838E0
1.936783135E1,-2.609679997E-1,-1.252167463E0,9.840168953E0
1.937790210E1,-2.250549644E-1,-1.268926859E0,9.888052940E0
1.938794232E1,-2.298433632E-1,-1.254561663E0,9.859322548E0
1.939798255E1,-2.250549644E-1,-1.259350061E0,9.840168953E0
1.940805329E1,-2.346317619E-1,-1.252167463E0,9.782708168E0
1.941809352E1,-2.537853718E-1,-1.221042871E0,9.804255486E0
1.942816426E1,-2.513911724E-1,-1.218648672E0,9.799467087E0
1.943820449E1,-2.609679997E-1,-1.192312479E0,9.785101891E0
1.944827523E1,-2.394201756E-1,-1.180341482E0,9.842563629E0
1.945831546E1,-3.088520169E-1,-1.204283476E0,9.840168953E0
1.946835568E1,-2.394201756E-1,-1.182735682E0,9.825803757E0
1.947842643E1,-2.418143749E-1,-1.182735682E0,9.825803757E0
1.948846665E1,-2.346317619E-1,-1.175553083E0,9.782708168E0
1.949853740E1,-2.561795712E-1,-1.154005170E0,9.746794701E0
1.950857762E1,-2.322375625E-1,-1.144428372E0,9.763554573E0
1.951861785E1,-2.226607651E-1,-1.118092179E0,9.835380554E0
1.952868859E1,-2.059013397E-1,-1.074996591E0,9.921571732E0
1.953872882E1,-2.322375625E-1,-1.053448796E0,9.921571732E0
1.954879956E1,-2.178723514E-1,-1.060631394E0,9.904812813E0
1.955883979E1,-1.867477298E-1,-1.046266198E0,9.897629738E0
1.956891053E1,-2.130839527E-1,-1.036689281E0,9.842563629E0
1.957895076E1,-2.298433632E-1,-1.022324085E0,9.758766174E0
1.958899098E1,-2.130839527E-1,-1.036689281E0,9.713275909E0
1.959906173E1,-2.202665508E-1,-1.041477680E0,9.794678688E0
1.960910195E1,-2.011129409E-1,-1.015141487E0,1.001973438E1
1.961917270E1,-1.939303428E-1,-9.744400978E-1,1.007958889E1
1.962921292E1,-1.675941199E-1,-9.840168953E-1,9.907206535E0
1.963928367E1,-2.011129409E-1,-1.019929886E0,9.550470352E0
1.964932389E1,-2.178723514E-1,-1.043871999E0,9.358934402E0
1.965936412E1,-2.202665508E-1,-1.022324085E0,9.509769440E0
1.966943486E1,-2.082955539E-1,-1.012747288E0,9.873687744E0
1.967947509E1,-2.059013397E-1,-9.696516991E-1,1.016817474E1
1.968954583E1,-1.819593310E-1,-9.289502501E-1,1.027591324E1
1.969958606E1,-1.891419291E-1,-9.337386489E-1,1.022563553E1
1.970962628E1,-2.011129409E-1,-9.145850539E-1,1.003649330E1
1.971969703E1,-2.130839527E-1,-8.882488012E-1,9.842563629E0
1.972973725E1,-2.226607651E-1,-8.762778044E-1,9.739612579E0
1.973980800E1,-2.202665508E-1,-8.427590132E-1,9.732429504E0
1.974984822E1,-1.915361285E-1,-8.451532125E-1,9.718064308E0
1.975991897E1,-2.059013397E-1,-8.355764151E-1,9.806650162E0
1.976995919E1,-2.154781520E-1,-8.259995580E-1,9.816226959E0
1.977999942E1,-2.250549644E-1,-8.283938169E-1,9.835380554E0
1.979007016E1,-2.250549644E-1,-8.068459630E-1,9.840168953E0
1.980011039E1,-2.059013397E-1,-8.068459630E-1,9.866505623E0
1.981018113E1,-2.106897533E-1,-8.307880163E-1,9.873687744E0
1.982022136E1,-1.867477298E-1,-8.236053586E-1,9.878476143E0
1.983029210E1,-1.867477298E-1,-8.092401624E-1,9.890447617E0
1.984033233E1,-2.011129409E-1,-8.259995580E-1,9.890447617E0
1.985037255E1,-1.867477298E-1,-8.212111592E-1,9.904812813E0
1.986044330E1,-1.795651317E-1,-8.164227605E-1,9.876082420E0
1.987048352E1,-1.771709323E-1,-7.972691655E-1,9.806650162E0
1.988055427E1,-1.867477298E-1,-7.900865674E-1,9.775525093E0
1.989059449E1,-1.867477298E-1,-7.924807668E-1,9.818621635E0
1.990063472E1,-1.747767180E-1,-7.589619160E-1,9.878476143E0
1.991070546E1,-2.011129409E-1,-7.254431248E-1,9.933543205E0
1.992074569E1,-2.130839527E-1,-6.943184733E-1,9.935936928E0
1.993081643E1,-2.059013397E-1,-6.488286853E-1,9.955090523E0
1.994085666E1,-2.082955539E-1,-6.775590777E-1,9.933543205E0
1.995092740E1,-2.035071403E-1,-6.536170840E-1,9.883264542E0
1.996096763E1,-1.843535304E-1,-6.631938815E-1,9.895236015E0
1.997100785E1,-1.939303428E-1,-6.799532771E-1,9.904812813E0
1.998107860E1,-1.939303428E-1,-6.679822803E-1,9.871294022E0
1.999111882E1,-1.915361285E-1,-6.655880809E-1,9.859322548E0
2.000118956E1,-1.963245422E-1,-6.703764796E-1,9.856928825E0
2.001122979E1,-2.394201756E-1,-6.631938815E-1,9.916783333E0
2.002127002E1,-2.466027737E-1,-6.488286853E-1,9.947908401E0
2.003134076E1,-2.322375625E-1,-6.584054828E-1,9.964667320E0
2.004138099E1,-2.035071403E-1,-6.775590777E-1,9.926360130E0
2.005145173E1,-2.178723514E-1,-6.991068721E-1,9.909601212E0
2.006149196E1,-2.394201756E-1,-6.823474765E-1,9.902418137E0
2.007156270E1,-2.346317619E-1,-7.015010715E-1,9.902418137E0
2.008160293E1,-2.561795712E-1,-6.943184733E-1,9.890447617E0
2.009164315E1,-2.537853718E-1,-6.823474765E-1,9.844957352E0
2.010171390E1,-2.489969730E-1,-7.110779285E-1,9.823410034E0
2.011175412E1,-2.849099934E-1,-7.254431248E-1,9.832986832E0
2.012182486E1,-2.920926213E-1,-7.374141216E-1,9.830592155E0
2.013186509E1,-2.825157940E-1,-7.805097699E-1,9.856928825E0
2.014190532E1,-2.633621991E-1,-8.236053586E-1,9.821015358E0
2.015197606E1,-2.489969730E-1,-8.738836050E-1,9.787496567E0
2.016201629E1,-2.729389966E-1,-9.050082564E-1,9.758766174E0
2.017208703E1,-2.513911724E-1,-9.313444495E-1,9.775525093E0
2.018212726E1,-2.394201756E-1,-9.600749016E-1,9.742006302E0
2.019216748E1,-2.729389966E-1,-9.457096457E-1,9.797073364E0
2.020223823E1,-2.609679997E-1,-9.935936928E-1,9.842563629E0
2.021227845E1,-3.280056417E-1,-1.058237195E0,9.787496567E0
2.022234920E1,-2.849099934E-1,-1.146822572E0,9.847352028E0
2.023238942E1,-2.322375625E-1,-1.125274777E0,9.799467087E0
2.024246016E1,-2.298433632E-1,-1.031900883E0,9.732429504E0
2.025250039E1,-2.561795712E-1,-1.003170490E0,9.799467087E0
2.026254062E1,-2.753331959E-1,-9.911994934E-1,9.811438560E0
2.027261136E1,-2.513911724E-1,-1.031900883E0,9.940725327E0
2.028265159E1,-2.729389966E-1,-1.005564690E0,9.880870819E0
2.029272233E1,-2.896983922E-1,-9.983820915E-1,9.938331604E0
2.030276256E1,-3.040636182E-1,-9.911994934E-1,9.892841339E0
2.031280278E1,-2.873041928E-1,-9.528923035E-1,9.876082420E0
2.032287353E1,-2.944868207E-1,-9.313444495E-1,9.722852707E0
2.033291375E1,-2.825157940E-1,-9.409212470E-1,9.684545517E0
2.034298450E1,-2.920926213E-1,-9.864110947E-1,9.797073364E0
2.035302472E1,-2.944868207E-1,-9.696516991E-1,1.002691650E1
