"Time (s)","Linear Acceleration x (m/s^2)","Linear Acceleration y (m/s^2)","Linear Acceleration z (m/s^2)"
3.408041200E-2,2.528660744E-2,4.221349955E-2,3.235244751E-2
5.007162300E-2,1.987096667E-2,5.770161748E-2,2.563476562E-2
6.606283400E-2,-2.458405122E-2,4.659795761E-2,4.536056519E-2
8.205404500E-2,-6.162483245E-2,1.130115986E-2,5.526828766E-2
9.798422000E-2,-1.474148687E-2,-3.020077944E-3,8.883953094E-2
1.140059490E-1,2.736689523E-3,-1.080238819E-2,9.080982208E-2
1.299971600E-1,9.306088090E-3,-3.464066982E-2,3.305912018E-2
1.459578530E-1,2.052063122E-3,-7.914802432E-2,-5.325412750E-1
1.619185470E-1,2.684545517E-2,-6.056042016E-2,2.715559006E-1
1.778487220E-1,-4.518163204E-2,7.996648550E-3,-3.701906204E-1
1.938399330E-1,-4.100155085E-2,-3.184981644E-2,1.515188217E-1
2.097701090E-1,-3.655653447E-2,6.786975265E-2,2.475347519E-1
2.257918380E-1,-1.464756392E-2,1.682841778E-2,-3.646850586E-3
2.417525310E-1,3.760895133E-2,6.060096622E-2,2.721319199E-1
2.577437420E-1,1.018310897E-2,-1.085764170E-2,-5.609893799E-1
2.737654700E-1,6.995400786E-2,-1.331534982E-2,1.309614182E-1
2.897566810E-1,6.182523444E-3,4.523098469E-3,2.338972092E-1
3.057478920E-1,2.702914178E-2,-5.616718531E-2,1.712970734E-1
3.216780680E-1,2.228133380E-3,-2.120479941E-2,-3.242073059E-1
3.376082440E-1,-3.369563445E-2,-5.492532253E-2,-5.852451324E-1
3.535689370E-1,-1.540564001E-2,-4.321634769E-4,1.517963409E-1
3.694991130E-1,-5.452197418E-2,3.154705465E-2,2.256374359E-1
3.854598060E-1,-2.375561371E-2,7.428374887E-2,1.118626595E0
4.014815350E-1,2.497892827E-3,8.153966069E-2,1.614170074E-1
4.174422280E-1,2.539742738E-2,6.308373809E-2,-5.814552307E-3
4.334639570E-1,-4.088098556E-2,3.980606794E-2,-4.717273712E-1
4.494246500E-1,-9.749846160E-2,-2.562049031E-2,-5.387363434E-1
4.654158610E-1,-4.687290266E-2,-1.639306545E-2,2.462091446E-1
4.813155190E-1,-1.298974454E-2,-7.839830220E-2,-1.039600372E-2
4.973067300E-1,3.632247448E-2,-8.835476637E-2,6.885166168E-1
5.132674240E-1,-1.462952141E-2,-4.217971861E-2,1.578807831E-2
5.292891520E-1,-1.261178963E-2,-4.790331423E-2,1.835298538E-1
5.452803630E-1,-1.863313466E-2,6.673166156E-2,-6.866455078E-4
5.612410560E-1,-2.290914953E-2,9.035938978E-2,-1.801748276E-1
5.772017500E-1,-1.195342652E-2,1.282101870E-1,-1.496410370E-2
5.931929610E-1,2.557149902E-2,8.967110515E-2,-3.597249985E-1
6.091231360E-1,2.606264874E-2,3.963470459E-2,3.416290283E-1
6.250838300E-1,-2.466699108E-2,-2.416890860E-2,-1.420907974E-1
6.410750410E-1,-4.180201143E-2,-3.189411759E-2,1.380462646E-1
6.570662520E-1,-3.330647945E-2,-9.874463081E-3,8.549976349E-2
6.730879800E-1,2.023801580E-2,2.573654056E-2,-4.603004456E-2
6.890791910E-1,3.494013101E-2,4.724612832E-2,-5.553054810E-2
7.050704020E-1,1.526977122E-2,5.049350858E-2,-1.006412506E-2
7.210005780E-1,-3.871268779E-2,-6.472557783E-3,1.857852936E-2
7.369612710E-1,-6.382787973E-2,-1.101046801E-2,-6.542205811E-4
7.529830000E-1,-3.978879005E-2,-4.694254696E-2,1.603603363E-2
7.689742110E-1,-4.484636337E-2,-5.984741449E-2,1.838874817E-2
7.849654220E-1,-3.503912315E-2,-2.511906624E-2,1.117229462E-2
8.009566330E-1,-1.040210202E-2,-2.875435352E-2,3.986740112E-2
8.169478440E-1,9.779324755E-3,3.886157274E-2,2.308940887E-2
8.329390540E-1,1.515720785E-2,6.045597792E-2,1.829910278E-2
8.488997480E-1,-2.067505382E-2,6.829825044E-2,-4.396915436E-2
8.648909590E-1,-1.357746776E-2,7.444190979E-2,-3.306388855E-3
8.808211350E-1,-3.563718498E-2,5.682316422E-2,5.890178680E-2
8.968123450E-1,-9.519411251E-3,4.563584924E-2,4.690933228E-2
9.128340740E-1,1.233099401E-2,-2.576351166E-3,4.691791534E-2
9.288252850E-1,1.763685606E-2,-2.280613780E-2,3.976535797E-2
9.448164960E-1,3.972243518E-3,-2.640119195E-2,2.303695679E-2
9.607466720E-1,-2.397840098E-2,-3.703078628E-2,3.743076324E-2
9.767073650E-1,-3.983554244E-2,5.203902721E-3,-8.535385132E-4
9.926070230E-1,-1.609151065E-2,2.251493931E-2,-1.062135696E-1
1.008567717E0,1.443501562E-3,2.092748880E-2,-1.302433014E-1
1.024528410E0,3.394094482E-2,1.487821341E-2,-5.857849121E-2
1.040550138E0,2.997110970E-2,9.112387896E-3,1.734905243E-1
1.056510832E0,-5.031212047E-2,3.278285265E-3,2.859792709E-1
1.072502043E0,-8.151946962E-2,-5.326539278E-3,9.700489044E-2
1.088401701E0,-5.827467889E-2,1.956760883E-2,-9.429264069E-2
1.104362394E0,-1.357870176E-3,2.697122097E-2,-1.731653214E-1
1.120384123E0,4.652994871E-2,6.051656604E-2,2.788352966E-2
1.136344816E0,6.055655330E-2,7.772240043E-2,-2.573041916E-1
1.152366545E0,5.218960345E-2,5.560666323E-3,9.204616547E-1
1.168327238E0,-2.674307115E-2,-2.308711410E-2,-4.776840210E-1
1.184287931E0,-5.349691212E-2,-6.961099803E-2,-4.728021622E-1
1.200309660E0,-7.358542085E-2,-4.950910807E-3,-5.352478027E-1
1.216270353E0,-5.965480208E-2,2.497299016E-2,2.017688751E-1
1.232261564E0,-3.687892854E-2,6.383115053E-2,7.114915848E-1
1.248191740E0,-1.646521501E-2,8.479861915E-2,6.949157715E-1
1.264152433E0,2.666625194E-2,7.936233282E-2,4.432201385E-2
1.280174162E0,3.635667264E-3,1.905214787E-2,-4.386186600E-1
1.296134855E0,-6.727725267E-2,8.121699095E-3,-5.460243225E-1
1.312156584E0,-8.927957714E-2,4.886299372E-3,-2.636995316E-1
1.328147795E0,-3.725752607E-2,-2.456435561E-2,1.141796112E-1
1.344108488E0,-2.087320015E-2,-5.125448108E-2,3.508806229E-1
1.360130217E0,1.926280186E-2,-6.808657944E-2,2.885637283E-1
1.376121428E0,1.789298281E-2,-5.825746059E-2,2.053070068E-2
1.392112638E0,1.114420593E-2,2.308663726E-2,-9.426116943E-2
1.408073332E0,4.937343299E-3,9.096759558E-2,-7.260227203E-2
1.424064543E0,-7.244698238E-3,1.205462813E-1,3.757572174E-2
1.439964201E0,-1.579574309E-2,9.811437130E-2,1.755714417E-3
1.455924894E0,1.196181122E-2,5.550518632E-2,-1.250829697E-1
1.471855070E0,-5.353577435E-4,-7.276982069E-3,-2.936840057E-2
1.487876799E0,-2.530283108E-2,-1.695308089E-2,1.022472382E-1
1.503806974E0,-3.067747690E-2,4.130870104E-3,1.525392532E-1
1.519828703E0,8.934808895E-3,1.242592931E-2,8.082199097E-2
1.535789396E0,2.153252624E-2,1.983314753E-2,-3.875064850E-2
1.551750090E0,5.790654570E-3,5.061113834E-2,-3.866577148E-2
1.567680265E0,-2.041320689E-2,3.861439228E-2,-4.824256897E-2
1.583640959E0,-4.063268006E-2,-8.365511894E-5,-2.196884155E-2
1.599662687E0,-4.195098579E-2,-1.679703593E-2,2.344703674E-2
1.615653898E0,-4.156680405E-2,-3.632685542E-2,4.014682770E-2
1.631645109E0,-2.703779191E-2,-3.309589624E-2,2.815055847E-2
1.647605803E0,-2.294871025E-3,-1.640740037E-2,1.857471466E-2
1.663566496E0,-1.391943544E-3,1.400387287E-2,3.056621552E-2
1.679588224E0,2.062700316E-2,3.969678283E-2,4.016017914E-2
1.695579435E0,6.562142633E-3,8.306261897E-2,-3.167438507E-2
1.711570646E0,-1.764724776E-2,8.177834749E-2,-2.452373505E-2
1.727531340E0,-5.150796473E-2,5.696755648E-2,3.289318085E-2
1.743492033E0,-3.500865772E-2,3.859099746E-2,7.596683502E-2
1.759391691E0,-2.035264298E-2,1.402536035E-2,3.528308868E-2
1.775382902E0,1.627784036E-2,-1.138713956E-2,6.594657898E-3
1.791343595E0,3.638834506E-2,-2.249196172E-2,9.032249451E-3
1.807365324E0,-1.256622560E-2,-1.177147031E-2,4.019260406E-2
1.823356535E0,-2.298386954E-2,-5.688816309E-3,1.867580414E-2
1.839347746E0,-1.048053987E-2,8.388906717E-3,-9.144973755E-2
1.855308439E0,-9.244809859E-3,1.806005836E-2,-1.561660767E-1
1.871238615E0,-5.897610448E-3,1.872590184E-2,-7.492065430E-2
1.887199308E0,1.080281287E-2,2.721464634E-2,1.403846741E-1
1.903160002E0,-3.221538663E-2,9.282857180E-3,2.911844254E-1
1.919181730E0,-7.580450177E-2,1.729178429E-2,1.525020599E-1
1.935203459E0,-4.273948818E-2,2.444362640E-2,-9.621334076E-2
1.951194670E0,-1.048318110E-3,2.322939038E-2,-1.965875626E-1
1.967185881E0,2.541308478E-2,5.917391181E-2,-3.163671494E-1
1.983146574E0,6.566394120E-2,8.416375518E-2,1.046981812E-1
1.999168303E0,3.127407283E-2,3.358170390E-2,5.689105988E-1
2.015159513E0,2.680908516E-2,-3.116673231E-2,9.253787994E-2
2.031150724E0,-3.353274614E-2,-6.384217739E-2,-4.842815399E-1
2.047050383E0,-3.650351614E-2,-6.714403629E-2,-4.986944199E-1
2.063041594E0,-5.086241290E-2,-9.340107441E-3,-2.498912811E-2
2.078941252E0,-4.506358504E-2,6.447577477E-2,6.331062317E-1
2.094901945E0,-3.473880515E-2,9.612897038E-2,7.361698151E-1
2.110832121E0,4.698731750E-2,1.013351977E-1,1.358108521E-1
2.126792814E0,4.609220475E-2,1.030825078E-1,-1.818771362E-1
2.142784025E0,-7.243553549E-2,-7.461577654E-3,-7.584800720E-1
2.158775236E0,-6.779161841E-2,1.159974933E-2,1.583499908E-1
2.174766447E0,-8.633804321E-2,-3.768995404E-2,-3.089990616E-1
2.190696623E0,8.818402886E-3,-8.189474046E-2,7.177162170E-1
2.206657316E0,3.297362477E-3,-4.392835498E-2,4.960155487E-2
2.222618010E0,-1.530777197E-2,-3.752982616E-2,5.208301544E-2
2.238578703E0,-4.796112329E-2,1.695907116E-2,-6.747341156E-2
2.254569914E0,-2.449015528E-2,8.673420548E-2,-2.424621582E-2
2.270530607E0,-1.894205436E-2,1.381694973E-1,3.093051910E-2
2.286552336E0,-4.086479545E-3,1.139203906E-1,-2.398204803E-2
2.302543547E0,5.877096578E-2,6.135419011E-2,-1.675643921E-1
2.318504240E0,1.150178164E-2,2.956926823E-3,-1.126184464E-1
2.334464933E0,-2.295630053E-2,-3.914409876E-2,8.353042603E-2
2.350395109E0,-6.505534798E-2,-2.432712913E-2,2.223081589E-1
2.366386320E0,-1.640592888E-2,2.076536417E-2,2.559127808E-1
2.382377531E0,3.205687925E-2,5.584940314E-2,1.220855713E-1
2.398368742E0,3.343882412E-2,6.703552604E-2,-1.362361908E-1
2.414329435E0,-1.688695326E-2,5.529609323E-2,-2.391176224E-1
2.430290129E0,-6.210883707E-2,2.431720495E-2,-1.482954025E-1
2.446250822E0,-7.397453487E-2,-1.199930906E-2,4.055976868E-2
2.462211515E0,-3.299937397E-2,-5.202472210E-2,1.265125275E-1
2.478233244E0,-6.137691904E-3,-6.498707831E-2,7.133102417E-2
2.494193937E0,2.149762120E-3,-7.220804691E-2,-7.678031921E-3
2.510154631E0,1.042134780E-2,-3.693372011E-2,-4.117774963E-2
2.526054289E0,-1.112034172E-2,1.095464826E-2,-3.639030457E-2
2.542014982E0,-9.273560718E-3,5.961805582E-2,3.062629700E-2
2.557914640E0,-1.723751612E-2,1.055074036E-1,6.892204285E-2
2.573905851E0,-1.978564635E-2,1.255806088E-1,7.135963440E-2
2.589927580E0,-1.953153126E-2,9.365734458E-2,1.878166199E-2
2.605888273E0,-9.835245088E-3,5.183199048E-2,-4.814910889E-2
2.621879484E0,-1.204414479E-2,-1.025488973E-2,-2.174568176E-2
2.637809660E0,4.991300404E-3,-1.842388511E-2,5.968856812E-2
2.653800871E0,1.311573014E-2,-2.923911810E-2,9.803295135E-2
2.669822599E0,-2.045655623E-3,-3.665658832E-2,6.459426880E-2
2.685813810E0,-1.522541605E-2,-3.448832035E-2,-5.024623871E-2
2.701805021E0,-1.091719978E-2,-1.065397263E-2,-1.388282776E-1
2.717735197E0,-7.724002469E-3,4.928529263E-3,-1.221809387E-1
2.733726408E0,1.798466966E-2,1.758047938E-2,6.679344177E-2
2.749717619E0,3.478311934E-3,2.019158006E-2,2.486734390E-1
2.765708830E0,-3.045182116E-2,1.829558611E-2,1.841611862E-1
2.781700041E0,-2.827147022E-2,-4.111230373E-3,-3.585624695E-2
2.797660734E0,-1.708140969E-2,1.816660166E-2,-1.050825119E-1
2.813651945E0,-2.669144049E-2,3.713813424E-2,-2.463321686E-1
2.829673674E0,3.679110110E-2,5.220901966E-2,-7.419872284E-2
2.845603849E0,5.729373544E-2,5.570602417E-2,4.186801910E-1
2.861564543E0,3.034645133E-2,-3.861814737E-3,2.462205887E-1
2.877464201E0,-9.600302204E-3,-4.338213801E-2,-3.330650330E-1
2.893455412E0,-3.388452157E-2,-5.426692963E-2,-4.719648361E-1
2.909446623E0,-4.640007764E-2,-2.963292599E-2,-2.041215897E-1
2.925437834E0,-9.312366694E-2,3.642356396E-2,3.916559219E-1
2.941429045E0,-8.000441641E-2,5.849832296E-2,7.315530777E-1
2.957359220E0,-7.640877273E-3,8.746320009E-2,3.393020630E-1
2.973350431E0,3.865206242E-2,6.161394715E-2,-3.112144470E-1
2.989372160E0,6.362813525E-3,4.353788495E-2,-5.692834854E-1
3.005332853E0,-3.201502189E-2,1.945617795E-2,-2.699995041E-1
3.021324064E0,-7.200403512E-2,-1.511323452E-2,9.364509583E-2
3.037345793E0,-5.826534331E-2,-7.774181664E-2,2.993326187E-1
3.053306486E0,-2.922889590E-2,-9.492933750E-2,1.987886429E-1
3.069328215E0,-9.130747989E-3,-6.244298816E-2,-4.763126373E-2
3.085319426E0,1.888439432E-2,-7.900804281E-3,-1.504144669E-1
3.101310636E0,8.162936196E-3,8.098700643E-2,-3.542613983E-2
3.117240812E0,-9.008303285E-3,1.018399000E-1,5.846958160E-1
3.133232023E0,-4.413115606E-2,1.271704435E-1,-2.675285339E-1
3.149253752E0,1.674052887E-2,8.254349232E-4,-1.332359314E-1
3.165244963E0,4.708658159E-2,3.213384748E-2,-3.270111084E-1
3.181236174E0,-1.445338689E-2,-4.390048981E-2,-4.611043930E-1
3.197135832E0,-1.201793179E-2,-1.987981796E-2,4.917068481E-1
3.213127043E0,-2.081319690E-2,1.426616311E-2,6.114797592E-1
3.229118254E0,-1.289743278E-2,4.988211393E-2,1.352949142E-1
3.245109465E0,1.399482042E-2,5.084639788E-2,-1.753997803E-2
3.261100676E0,-1.577030867E-3,2.462205291E-2,-9.141063690E-2
3.277000334E0,-2.824051306E-2,-2.422124147E-3,-8.641719818E-2
3.292961027E0,-1.609802991E-2,-3.832876682E-2,-5.041313171E-2
3.308921720E0,-1.402838156E-2,-1.737511158E-2,2.861881256E-2
3.324943449E0,-3.846521303E-2,-2.071273327E-2,5.268859863E-2
3.340965178E0,-3.097443655E-2,-1.596665382E-2,1.696109772E-2
3.356986906E0,-1.160621643E-2,-1.570606232E-2,3.877925873E-2
3.372947599E0,4.903016612E-3,2.386432886E-2,4.629421234E-2
3.388969328E0,-1.253918745E-2,3.192591667E-2,5.622673035E-2
3.404899504E0,-5.843201652E-3,4.747909307E-2,-3.277778625E-3
3.420890715E0,-3.492932022E-2,6.852069497E-2,-2.928638458E-2
3.436912443E0,-4.285385460E-2,5.950942636E-2,-7.448959351E-2
3.452903654E0,-4.699503630E-2,3.838050365E-2,-9.823608398E-2
3.468894865E0,-1.684137806E-2,3.080046177E-2,2.160072327E-2
3.484825041E0,2.284670249E-3,-4.397630692E-3,1.606454849E-1
3.500785734E0,-1.199977193E-2,-1.056042314E-2,1.514549255E-1
3.516807463E0,-2.855812944E-2,-2.641347051E-2,3.682041168E-2
3.532768156E0,-2.450172603E-2,-6.767153740E-3,-8.668136597E-2
3.548789885E0,-4.044916853E-2,-5.481809378E-3,-1.531839371E-1
3.564781095E0,-2.185735479E-2,2.035054564E-2,-1.002397537E-1
3.580741789E0,1.323441789E-2,6.161499023E-2,2.494096756E-1
3.596763517E0,4.962890223E-2,7.167655230E-2,2.904548645E-1
3.612724211E0,4.459714890E-2,2.083623409E-2,-1.111145020E-1
3.628715422E0,2.348457649E-2,-2.583706379E-2,-3.930644989E-1
3.644615080E0,-1.086649299E-2,-1.559913158E-2,-3.498830795E-1
3.660545256E0,-6.427089870E-2,2.907639742E-2,1.130580902E-2
3.676505949E0,-1.086853594E-1,5.371826887E-2,4.731035233E-1
3.692497160E0,-6.241887808E-2,8.713281155E-2,5.046091080E-1
3.708518888E0,-5.377799273E-3,8.383601904E-2,1.369781494E-1
3.724510099E0,4.048140720E-2,5.734139681E-2,-2.136163712E-1
3.740470793E0,-1.125924662E-2,1.383960247E-2,-3.131647110E-1
3.756492521E0,-6.824675202E-2,3.514826298E-3,-1.714277267E-1
3.772453215E0,-4.843580350E-2,-2.963739634E-2,4.896831512E-2
3.788444426E0,-4.050776735E-2,-3.438884020E-2,1.640405655E-1
3.804405119E0,-2.981843427E-2,-2.829688787E-2,1.117315292E-1
3.820365812E0,-1.776043698E-2,1.534759998E-3,-2.756118774E-4
3.836387541E0,-2.609087713E-2,3.383529186E-2,-4.045867920E-2
3.852348234E0,-1.368436031E-2,6.272482872E-2,1.265525818E-2
3.868369963E0,-1.800302789E-2,6.554913521E-2,5.618095398E-2
3.884361174E0,-7.148865610E-3,5.045294762E-2,-4.626274109E-2
3.900321867E0,1.454897225E-2,2.379655838E-2,-9.844493866E-2
3.916343595E0,-1.563499123E-2,1.553219557E-2,-7.071495056E-3
3.932365324E0,-3.629152104E-2,1.222479343E-2,5.317115784E-2
3.948356535E0,-3.294774517E-2,9.874820709E-3,5.365943909E-2
3.964286711E0,-1.955233514E-3,4.656112194E-2,2.793407440E-2
3.980216886E0,1.197969168E-2,7.098758221E-2,2.240180969E-3
3.996238615E0,7.031451911E-3,6.742751598E-2,4.444122314E-4
4.012229826E0,-1.147047430E-2,5.038523674E-2,1.534748077E-2
4.028221037E0,-3.417704999E-2,4.710614681E-3,1.588249207E-2
4.044120695E0,-5.917499214E-2,-1.741981506E-2,-5.098342896E-3
4.060081388E0,-3.586819768E-2,-2.265292406E-2,-9.325027466E-3
4.076103117E0,-1.750808582E-2,-3.949397802E-2,-3.272533417E-2
4.092033293E0,-2.533836663E-2,-3.290712833E-3,1.328372955E-2
4.108024504E0,-9.073972702E-3,1.298952103E-2,7.132530212E-2
4.124015715E0,5.065672100E-3,4.239988327E-2,5.460577011E-1
4.140006926E0,-1.907783374E-2,8.770942688E-2,-4.803009033E-1
4.155998136E0,-3.086414188E-3,4.500985146E-2,6.151103973E-2
4.171989347E0,-2.823293582E-2,1.080444455E-1,-2.827415466E-1
4.187919523E0,-2.176502720E-2,1.411765814E-2,9.578227997E-2
4.203910734E0,-3.930248320E-2,7.672685385E-2,3.976182938E-1
4.219840910E0,-4.266979545E-2,2.545827627E-2,1.897916794E-1
4.235832121E0,-5.059736222E-2,7.636606693E-3,3.264045715E-2
4.251792814E0,-7.386494428E-3,1.274877787E-2,-9.568977356E-2
4.267722990E0,1.305310428E-2,4.164576530E-3,-1.117277145E-1
4.283714201E0,2.843357623E-3,1.040202379E-2,-1.473569870E-1
4.299674894E0,8.884742856E-4,7.037037611E-2,1.614828110E-1
4.315666105E0,-1.300714910E-3,5.068445206E-2,3.006076813E-1
4.331657316E0,2.686013281E-2,2.547842264E-2,-3.623867035E-2
4.347618010E0,1.447963715E-2,-5.610525608E-3,-3.444766998E-1
4.363578703E0,-8.544981480E-3,-7.733225822E-3,-3.181705475E-1
4.379539396E0,-5.048993230E-2,1.282376051E-2,-4.356193542E-2
4.395561125E0,-7.391376793E-2,6.016224623E-2,3.507328033E-1
4.411521818E0,-7.934065163E-2,1.023181677E-1,4.489793777E-1
4.427482511E0,-1.221089065E-2,8.900821209E-2,2.178688049E-1
4.443412687E0,4.774077982E-2,7.928675413E-2,-1.276226044E-1
4.459373381E0,3.313298523E-2,4.938733578E-2,-2.172288895E-1
4.475395109E0,-1.526246965E-2,1.723766327E-2,-1.279048920E-1
4.491355803E0,-6.153993309E-2,-2.273142338E-3,-4.385375977E-2
4.507377531E0,-7.695974410E-2,-1.076948643E-2,4.964733124E-2
4.523338224E0,-6.857869774E-2,-1.288229227E-2,1.073083878E-1
4.539298918E0,-5.480761826E-2,-6.886482239E-3,7.651424408E-2
4.555320646E0,-4.941713810E-2,2.494752407E-2,5.053520203E-3
4.571281340E0,-1.461452991E-2,6.692659855E-2,-3.773117065E-2
4.587272551E0,-1.813257113E-2,7.890880108E-2,1.754474640E-2
4.603233244E0,-3.881447017E-3,7.971066236E-2,2.006816864E-2
4.619193937E0,1.700296998E-2,5.701202154E-2,2.495002747E-2
4.635215666E0,-7.845446467E-3,4.498147964E-2,-2.533340454E-2
4.651206877E0,-5.152508616E-3,2.520078421E-2,-4.227447510E-2
4.667198088E0,-2.186014876E-2,5.008292198E-2,-2.104949951E-2
4.683158781E0,3.580212593E-3,4.907244444E-2,1.929569244E-2
4.699088957E0,3.748429567E-2,5.938583612E-2,1.422023773E-2
4.715110685E0,3.147572279E-2,3.524225950E-2,5.233669281E-2
4.731071379E0,8.859038353E-4,2.214145660E-2,4.265785217E-2
4.747032072E0,-2.915607393E-2,1.555567980E-2,6.698608398E-3
4.762992765E0,-2.940719575E-2,3.818571568E-3,-3.881072998E-2
4.778983976E0,-2.693824843E-2,2.527832985E-4,-6.046962738E-2
4.794975187E0,-1.940751076E-2,7.755398750E-3,-4.395866394E-2
4.810935881E0,-1.926459372E-3,2.079755068E-2,-3.572463989E-3
4.826896574E0,-2.059068531E-2,2.155470848E-2,4.163169861E-2
4.842887785E0,-1.998803020E-2,3.070926666E-2,7.736396790E-2
4.858848478E0,-1.439138874E-2,3.642177582E-2,6.291103363E-2
4.874839689E0,-9.351603687E-3,4.430633783E-2,3.650951385E-2
4.890800383E0,-5.683591217E-2,5.978208780E-2,4.119777679E-2
4.906730558E0,-4.411898926E-2,6.927722692E-2,5.073547363E-3
4.922721769E0,-5.056706443E-2,8.149647713E-2,-8.635616302E-2
4.938712980E0,-1.910043135E-2,6.404185295E-2,-9.432029724E-2
4.954704191E0,2.869326621E-3,4.583108425E-2,-4.755783081E-2
4.970634367E0,6.823919713E-3,4.032135010E-3,7.320213318E-2
4.986564543E0,-1.293120906E-2,-2.858161926E-3,1.509752274E-1
5.002494719E0,-5.760839209E-2,-2.989315987E-2,4.469871521E-2
5.018485929E0,-2.864454128E-2,-2.975320816E-2,-7.580280304E-2
5.034507658E0,-5.270395428E-3,-4.310905933E-3,-3.837966919E-2
5.050468351E0,-1.146997884E-2,1.603007317E-3,-8.010482788E-2
5.066429045E0,2.248569578E-2,2.918422222E-2,2.480506897E-3
5.082389738E0,4.638180509E-2,6.699401140E-2,1.688432693E-1
5.098350431E0,5.879203603E-2,3.694546223E-2,1.056375504E-1
5.114372160E0,-4.974428564E-3,-5.237388611E-2,-3.620424271E-1
5.130363371E0,-3.193061799E-3,2.880454063E-2,-1.140708923E-1
5.146324064E0,-4.871158302E-2,2.281761169E-2,-7.068758011E-1
5.162254240E0,-2.844914608E-2,3.912293911E-2,5.820026398E-1
5.178214933E0,-7.730165869E-2,2.754640579E-2,-1.783561707E-2
5.194236662E0,-3.571100533E-3,1.167249680E-2,5.706110001E-1
5.210227873E0,-7.545780391E-3,4.939633608E-2,-2.050781250E-1
5.226219084E0,-2.227578685E-2,-1.517146826E-2,-2.073221207E-1
5.242149260E0,-4.705767334E-2,-2.583616972E-2,-2.243127823E-1
5.258109953E0,-3.335584700E-2,-3.413432837E-2,-1.651382446E-1
5.274131681E0,-5.329079553E-2,-3.699916601E-2,-3.924465179E-2
5.290122892E0,-2.513976395E-2,-9.735643864E-3,9.377479553E-2
5.306114103E0,-2.531345934E-2,1.048564911E-2,9.287834167E-2
5.322044279E0,-1.777670532E-2,2.125251293E-2,2.748680115E-2
5.338004972E0,-1.871033758E-2,5.955469608E-2,1.723957062E-2
5.354026701E0,-1.771032438E-2,6.174290180E-2,1.659584045E-2
5.369987394E0,-3.129505366E-2,3.965324163E-2,5.908107758E-2
5.385978605E0,5.873057991E-3,2.179026604E-3,-2.047443390E-2
5.401908781E0,2.522074431E-2,-1.565721631E-2,-1.766529083E-1
5.417869474E0,4.286635667E-3,-2.376854420E-2,-9.829998016E-2
5.433891203E0,-2.402313054E-2,-1.369631290E-2,1.595697403E-1
5.449851896E0,-2.699480020E-2,-1.143592596E-2,3.074598312E-1
5.465873625E0,3.543872386E-3,1.609003544E-2,1.180477142E-1
5.481834318E0,1.829192042E-2,2.969935536E-2,-1.718215942E-1
5.497795011E0,4.024391994E-2,5.436214805E-2,-2.583541870E-1
5.513816740E0,3.968282044E-2,2.544322610E-2,-1.715469360E-2
5.529807951E0,-2.680062503E-2,-2.257347107E-3,2.599220276E-1
5.545799162E0,-1.117113829E-1,-4.863652587E-2,2.474918365E-1
5.561729338E0,-1.141121089E-1,-6.600356102E-2,3.175258636E-2
5.577690031E0,-6.485349685E-2,-5.887228251E-2,-1.289319992E-1
5.593711760E0,-5.881927907E-3,-2.777397633E-2,-1.557178497E-1
5.609702970E0,5.083537102E-2,-3.467589617E-3,-3.902626038E-2
5.625694181E0,4.542336613E-2,1.323279738E-2,1.207256317E-1
5.641654875E0,1.422707736E-2,1.650947332E-2,7.704925537E-2
5.657646086E0,-4.311497509E-2,1.538464427E-2,3.585910797E-2
5.673667814E0,-9.751370549E-2,4.219949245E-3,2.343368530E-2
5.689659025E0,-6.871733814E-2,7.176458836E-3,-6.079864502E-2
5.705650236E0,-6.632156670E-3,-3.937482834E-4,-1.570138931E-1
5.721580412E0,2.476946637E-2,-3.156001866E-2,-5.214309692E-2
5.737541105E0,3.239116445E-2,-3.493772447E-2,8.146381378E-2
5.753562834E0,3.319736570E-3,-2.785114944E-2,1.840085983E-1
5.769523527E0,-2.285882644E-2,-1.049499214E-2,1.597700119E-1
5.785545256E0,-6.980112940E-2,-7.106587291E-3,-8.015632629E-3
5.801505949E0,-4.270776361E-2,5.810409784E-3,-6.804847717E-2
5.817497160E0,-3.743657470E-2,-1.524856687E-2,-4.908943176E-2
5.833427336E0,-2.448207885E-2,-2.326674759E-2,-2.528219223E-1
5.849418547E0,6.620661914E-2,-4.151150584E-3,-4.958438873E-2
5.865440275E0,4.696369916E-2,-3.576475009E-2,3.979244232E-1
5.881431486E0,2.702310681E-2,-7.538674772E-2,2.374229431E-1
5.897392179E0,-1.299810782E-2,-7.372187823E-2,-2.342710495E-1
5.913352873E0,-3.994099796E-3,-5.387685820E-2,-4.258813858E-1
5.929313566E0,-8.927028626E-3,3.898033872E-2,-8.121681213E-2
5.945243742E0,-1.232847944E-2,5.884562060E-2,4.430503845E-1
5.961234953E0,-1.251537353E-2,4.346252233E-2,6.585063934E-1
5.977226164E0,1.388191059E-2,2.218487114E-2,2.658567429E-1
5.993217375E0,-2.230935916E-2,-3.625217453E-2,-1.339368820E-1
6.009147551E0,-5.781686679E-2,-7.290310413E-2,-3.709163666E-1
6.025108244E0,-7.132877409E-2,-6.045786291E-2,-2.895088196E-1
6.041038420E0,-3.397716209E-2,-3.432379290E-2,-1.027917862E-1
6.056999113E0,-1.238469034E-3,-4.553497583E-2,4.322624207E-2
6.073020842E0,5.458388478E-3,-4.901397228E-2,1.701059341E-1
6.088981535E0,-3.966268897E-2,-6.389126182E-2,1.916484833E-1
6.105003263E0,-3.449940681E-2,-4.978611693E-2,3.840637207E-2
6.120963957E0,-4.428528249E-3,-9.915909031E-4,3.209056854E-1
6.136955168E0,-2.614770085E-3,8.310554177E-2,1.204776764E-2
6.152885344E0,-3.959812224E-3,-2.477771137E-3,1.533031464E-1
6.168876554E0,2.838070318E-2,2.149481140E-2,2.083673477E-1
6.184898283E0,-1.658419147E-2,-3.726598620E-2,-5.362243652E-1
6.200858976E0,-2.968099341E-2,-3.720966727E-2,3.855676651E-1
6.216819670E0,-3.152820095E-2,-1.505304500E-2,2.251863480E-1
6.232780363E0,-1.083220914E-2,-1.533460617E-2,1.988706589E-1
6.248802092E0,4.239337519E-2,-4.743879661E-3,1.150798798E-1
6.264762785E0,-3.090914339E-3,2.050204203E-2,4.564285278E-2
6.280692961E0,-3.118863143E-2,3.133822978E-2,-9.435653687E-3
6.296653654E0,-4.311211780E-2,3.719087318E-2,-1.411256790E-1
6.312675383E0,-4.586035386E-2,1.230299287E-2,-1.866083145E-1
6.328666594E0,-4.252579436E-2,-1.298590004E-2,-3.095245361E-2
6.344627287E0,-1.014563814E-2,-4.810481891E-2,1.366844177E-1
6.360557463E0,1.892706752E-2,-7.309600711E-2,2.205028534E-1
6.376518156E0,9.562786669E-3,-1.043382138E-1,9.360027313E-2
6.392539885E0,-8.045881987E-4,-9.708215296E-2,-4.049396515E-2
6.408500578E0,-2.785351127E-2,-5.460172892E-2,-2.374362946E-2
6.424522306E0,-5.408544838E-2,-1.373127103E-3,-4.582405090E-3
6.440452482E0,-3.021380492E-2,3.132844344E-2,-1.625680923E-1
6.456413176E0,3.141956776E-2,7.317020744E-2,-2.486896515E-1
6.472434904E0,5.316090584E-2,7.138201594E-2,5.070209503E-2
6.488456633E0,5.638673902E-4,1.407965273E-2,4.027605057E-1
6.504417326E0,-5.188819021E-2,-4.819352180E-2,3.118057251E-1
6.520347502E0,-6.099461392E-2,-7.553494722E-2,-7.610988617E-2
6.536277678E0,-4.630379006E-2,-6.364056468E-2,-1.647377014E-1
6.552299406E0,-2.747012675E-2,-5.465991050E-2,-2.293624878E-1
6.568290617E0,7.869788259E-2,5.463615060E-3,-1.694164276E-1
6.584281828E0,8.076285571E-2,2.027636021E-2,2.066316605E-1
6.600212004E0,4.109945148E-2,1.760648191E-2,2.259044647E-1
6.616203215E0,-6.307082623E-2,-3.693644702E-2,-4.938220978E-2
6.632163908E0,-6.614844501E-2,-3.881721199E-2,-2.289123535E-1
6.648155119E0,-4.589321837E-2,1.393616199E-3,-5.401802063E-2
6.664146330E0,-3.853583708E-2,2.950872481E-2,2.789440155E-1
6.680107023E0,-2.250023559E-2,5.233323574E-2,3.915700912E-1
6.696067717E0,7.505202666E-3,3.846200556E-2,1.281404495E-1
6.712058928E0,-7.242341992E-3,-7.944047451E-3,-2.430858612E-1
6.728050138E0,-7.990294695E-2,-2.586397529E-2,-2.982044220E-1
6.744071867E0,-1.020788103E-1,-5.419445038E-2,-3.674507141E-3
6.760063078E0,-4.232681543E-2,-6.630116701E-2,1.472311020E-1
6.776023771E0,-1.917819120E-2,-5.675636232E-2,6.826019287E-2
6.792045500E0,1.129676029E-2,-6.273537874E-2,2.039623260E-2
6.808006193E0,-5.160445347E-3,-3.208605945E-2,2.521419525E-2
6.823997404E0,-4.303658754E-2,8.898615837E-3,3.722858429E-2
6.839958097E0,-4.761832952E-2,6.034230441E-2,4.207515717E-2
6.855918791E0,-1.315956935E-2,7.252913713E-2,-8.952331543E-2
6.871940519E0,-2.492138743E-2,3.388544917E-2,-1.516132355E-1
6.887901213E0,1.723683439E-2,-2.415889502E-2,-2.495203018E-1
6.903922941E0,2.588048950E-2,-6.913615763E-2,8.362293243E-2
6.919853117E0,-2.482529730E-2,-7.637624443E-2,3.640594482E-1
6.935783293E0,-2.999110520E-2,-2.554880083E-2,2.420768738E-1
6.951743986E0,-9.042555466E-4,4.288941622E-3,2.178192139E-2
6.967704679E0,1.930246130E-2,4.325985909E-3,-1.913557053E-1
6.983726408E0,2.140860632E-2,4.703779519E-2,-1.697616577E-1
6.999687101E0,-3.188439086E-2,2.219656110E-2,8.177661896E-2
7.015678312E0,-5.475587025E-2,-1.093833148E-2,1.369647980E-1
7.031700041E0,-5.906865746E-2,-6.167161465E-2,-8.086013794E-2
7.047660734E0,-1.447016653E-2,-5.023841560E-2,-1.143331528E-1
7.063682463E0,-1.570542343E-2,-6.962321699E-2,4.613304138E-2
7.079643156E0,-3.444480523E-2,-5.511531234E-2,2.065477371E-1
7.095634367E0,-5.889433622E-2,-1.727338135E-2,1.466217041E-1
7.111625578E0,-8.822184801E-2,8.528734744E-2,-1.311740875E-1
7.127586271E0,1.287439186E-2,4.818123579E-2,2.711400986E-1
7.143608000E0,-2.962352335E-2,9.482294321E-2,-3.415021896E-1
7.159538176E0,-2.148274891E-2,1.187598705E-2,2.406301498E-1
7.175498869E0,-7.302413881E-2,2.774429321E-2,-2.967453003E-2
7.191398527E0,-2.134985849E-2,-6.420257688E-2,-2.187776566E-1
7.207389738E0,2.061878890E-2,-4.499703646E-2,2.983036041E-1
7.223380949E0,-3.767862916E-2,-5.505767465E-2,1.257743835E-1
7.239372160E0,-7.967092097E-2,-2.796098590E-2,6.089305878E-2
7.255332853E0,-3.261763975E-2,1.899905503E-2,6.301498413E-2
7.271293547E0,-4.628484324E-2,4.932631552E-2,6.036090851E-2
7.287284758E0,-5.863009393E-2,5.467090011E-2,-3.611774445E-1
7.303306486E0,7.916847616E-2,5.542089045E-2,-3.825922012E-1
7.319267179E0,4.681761190E-2,-1.788389683E-2,2.569808960E-1
7.335258390E0,3.297229856E-2,-8.262851834E-2,4.056043625E-1
7.351158049E0,-9.440315515E-2,-1.181141436E-1,-6.312370300E-3
7.367149260E0,-5.284744501E-2,-7.302470505E-2,-3.081130981E-1
7.383109953E0,-3.854704089E-3,2.481669188E-3,-9.499549866E-2
7.399131681E0,5.174051970E-3,7.514259219E-2,4.030809402E-1
7.415122892E0,8.953959681E-3,7.802785933E-2,5.896568298E-1
7.431083586E0,-2.410857379E-2,5.396574736E-2,1.678133011E-1
7.447044279E0,-6.215593591E-2,1.847144961E-2,-4.264144897E-1
7.462974455E0,-9.006883949E-2,4.684448242E-3,-6.994886398E-1
7.478965666E0,-4.193902761E-2,-3.241832554E-2,-2.970390320E-1
7.494895842E0,1.028635260E-2,-5.746702850E-2,3.761339188E-1
7.510917570E0,1.809230261E-2,-7.482893765E-2,7.019577026E-1
7.526908781E0,-5.827939510E-2,-9.680777788E-2,3.259429932E-1
7.542899992E0,-6.557351351E-2,-3.230765462E-2,-4.164838791E-1
7.558860685E0,-7.369974256E-2,2.877935767E-2,-6.295404434E-1
7.574851896E0,5.477180239E-3,9.787458181E-2,-1.024856567E-1
7.590873625E0,4.138343036E-2,1.328835487E-1,3.695678711E-1
7.606834318E0,2.335422300E-2,5.713017285E-2,3.218317032E-1
7.622856047E0,7.682347205E-3,-5.983430147E-2,2.244186401E-2
7.638847258E0,-7.449889928E-2,-1.423472762E-1,-1.840972900E-2
7.654838469E0,-7.227997482E-2,-1.035158187E-1,-9.513092041E-2
7.670768644E0,4.753591493E-4,8.784994483E-3,1.254177094E-2
7.686759855E0,4.945250601E-2,7.887692750E-2,1.656694412E-1
7.702781584E0,4.181237519E-2,1.171449795E-1,1.343727112E-1
7.718772795E0,-1.653009281E-2,8.355966210E-2,9.345054626E-2
7.734764006E0,-6.592319906E-2,5.759343505E-3,-7.911300659E-2
7.750694181E0,-8.106144518E-2,-5.678471923E-2,-2.204265594E-1
7.766685392E0,-4.538787901E-2,-8.503358066E-2,-1.987648010E-1
7.782707121E0,-7.234545425E-3,-3.753526509E-2,-8.597850800E-2
7.798698332E0,9.903376922E-3,-1.894021034E-2,8.428001404E-2
7.814689543E0,-4.318484291E-2,-1.332978904E-2,1.993389130E-1
7.830650236E0,-4.894340038E-2,-2.721664310E-2,2.662696838E-1
7.846610929E0,-3.706071153E-2,-2.446909249E-2,1.534118652E-1
7.862541105E0,-3.234891221E-3,5.658924580E-3,-9.784698486E-3
7.878471281E0,6.152986549E-3,4.983489215E-2,-1.178417206E-1
7.894431974E0,-6.845660508E-3,7.389912009E-2,-1.515417099E-1
7.910453703E0,-4.593183845E-2,9.917111695E-2,-5.105018616E-2
7.926414396E0,-5.075126514E-2,8.846987784E-2,1.021595001E-1
7.942405607E0,-4.106577113E-2,3.275758028E-2,1.404123306E-1
7.958305265E0,-2.270572260E-2,-3.521409631E-2,5.172634125E-2
7.974296476E0,-1.181437261E-2,-5.586819351E-2,-6.809043884E-2
7.990196135E0,-3.004151955E-2,-5.578905344E-2,-8.732128143E-2
8.006187345E0,-2.722432092E-2,-3.525923193E-2,-1.315212250E-2
8.022087004E0,-1.534803770E-2,-1.355734468E-2,1.064891815E-1
8.038078215E0,-2.347118780E-2,-8.073151112E-3,8.002185822E-2
8.054008390E0,-1.928645186E-3,2.330616117E-3,-2.308559418E-2
8.070030119E0,-4.710497335E-3,-2.345725894E-3,-3.757095337E-2
8.085990812E0,-4.489034042E-2,9.972155094E-3,8.684635162E-2
8.101982023E0,-5.267479271E-2,4.131700844E-2,9.395122528E-2
8.118003752E0,-3.135974705E-2,2.793001384E-2,-1.096210480E-1
8.133933928E0,-1.533341687E-2,4.668169096E-2,5.248126984E-1
8.149955656E0,-5.103693530E-2,-3.317937255E-3,-7.512712479E-1
8.165946867E0,1.239591911E-1,-7.316499949E-3,5.434989929E-3
8.181938078E0,3.102081455E-2,-9.582504630E-3,2.482891083E-2
8.197898771E0,3.571670735E-3,-1.140260696E-1,4.392051697E-1
8.213859465E0,-7.662122697E-2,-8.770871162E-2,-3.412342072E-1
8.229881193E0,-6.183840707E-2,-2.325893939E-2,-2.836637497E-1
8.245872404E0,-2.017876878E-2,6.454584748E-2,3.294401169E-1
8.261833097E0,1.965748146E-2,1.084537953E-1,7.604532242E-1
8.277763273E0,1.716757938E-2,1.013750359E-1,4.585437775E-1
8.293723967E0,-2.940388210E-2,7.392431796E-2,-2.983942032E-1
8.309745695E0,-9.310548007E-2,1.576578617E-2,-6.721086502E-1
8.325736906E0,-1.051896140E-1,2.365536988E-3,-4.805612564E-1
8.341728117E0,-5.473809317E-2,3.535896540E-4,1.013822556E-1
8.357688810E0,-1.579718664E-2,-2.552786469E-2,5.276861191E-1
8.373649504E0,4.309291951E-3,-6.809706986E-2,4.581956863E-1
8.389671232E0,-5.079488456E-2,-7.592368126E-2,4.141235352E-2
8.405631926E0,-4.901346564E-2,-4.354931414E-3,-3.609790802E-1
8.421623136E0,-2.750543877E-2,7.063876837E-2,-3.275012970E-1
8.437583830E0,-2.440904267E-3,1.424320787E-1,6.998634338E-2
8.453544523E0,2.564215660E-2,1.328980029E-1,3.956508636E-1
8.469566252E0,6.850441452E-3,3.330152482E-2,7.241821289E-2
8.485526945E0,2.263430692E-2,-6.201551855E-2,-3.992614746E-1
8.501548674E0,6.727561820E-3,-9.421691298E-2,-2.220230103E-1
8.517539885E0,-2.899441682E-2,-5.198872089E-2,2.067041397E-1
8.533500578E0,-2.390941605E-2,2.064698935E-2,4.054346085E-1
8.549522306E0,1.598042902E-3,6.864814460E-2,2.880287170E-1
8.565513517E0,8.765224367E-3,7.157050073E-2,-7.126045227E-2
8.581474211E0,-1.670094579E-2,6.321689487E-2,-3.538398743E-1
8.597404386E0,-4.781229049E-2,2.642178535E-2,-2.772579193E-1
8.613365080E0,-5.190436542E-2,-9.471543133E-3,1.730155945E-2
8.629386808E0,-6.457047164E-2,-8.632250130E-3,2.735424042E-1
8.645378019E0,-2.959406748E-2,-2.848973125E-2,2.998456955E-1
8.661369230E0,-4.721513763E-2,-3.722140938E-2,1.177740097E-1
8.677329924E0,-4.361367226E-2,-2.884127945E-2,-1.648588181E-1
8.693290617E0,-2.435591817E-2,1.178309321E-2,-2.535018921E-1
8.709312345E0,-1.132254489E-3,5.050956458E-2,-8.590507507E-2
8.725273039E0,8.176564239E-3,9.081621468E-2,1.200304031E-1
8.741264250E0,1.583800837E-2,7.935766131E-2,1.511802673E-1
8.757224943E0,-2.689605393E-2,2.889749408E-2,3.146839142E-2
8.773216154E0,-3.927179426E-2,-1.308808476E-2,-3.079223633E-2
8.789115812E0,-4.918916523E-2,-3.546623141E-2,-9.251594543E-3
8.805107023E0,-3.051008470E-2,-1.643361151E-2,2.426624298E-2
8.821037199E0,6.870380137E-3,6.890766323E-3,1.707744598E-2
8.837028410E0,2.012335323E-2,3.931144625E-2,-9.267807007E-3
8.852989103E0,-2.146002464E-2,3.550629690E-2,5.536460876E-2
8.868980314E0,-5.797990784E-2,3.128583357E-2,7.929229736E-2
8.884910490E0,-6.717842817E-2,2.203645185E-2,2.181625366E-2
8.900871183E0,-3.214657307E-2,1.392792538E-2,-7.395839691E-2
8.916801359E0,6.862380542E-4,2.059313655E-2,-5.239486694E-2
8.932762053E0,4.134797491E-3,1.967475936E-2,5.095481873E-3
8.948783781E0,-7.781340741E-3,1.654022932E-2,1.008968353E-1
8.964744474E0,-4.890000075E-2,-1.002814621E-2,1.296443939E-1
8.980766203E0,-6.619596481E-2,-1.428297907E-2,6.261062622E-2
8.996726896E0,-5.735740811E-2,4.666224122E-4,-7.864475250E-2
9.012687590E0,-2.637520060E-2,2.276620269E-2,-1.312894821E-1
9.028587248E0,8.406057023E-4,5.993581191E-2,-2.588844299E-2
9.044547941E0,-2.476261742E-2,4.405674338E-2,1.178216934E-1
9.060478117E0,-2.947357669E-2,1.253048331E-2,5.798530579E-2
9.076408293E0,8.957281709E-3,-1.618628949E-2,-1.072139740E-1
9.092368986E0,1.684843563E-2,-3.204241395E-3,7.719993591E-3
9.108390715E0,-2.768165246E-2,4.132695496E-3,2.088356018E-1
9.124351408E0,-3.713350371E-2,-4.018977284E-3,2.159585953E-1
9.140373136E0,-4.749457911E-2,8.833795041E-2,7.564544678E-3
9.156333830E0,-6.879853457E-2,2.303610742E-2,-4.809389114E-1
9.172325041E0,-4.116414860E-2,5.323822424E-2,-5.479907990E-2
9.188224699E0,6.829052418E-2,3.114506230E-2,-5.862407684E-1
9.204215910E0,4.437969998E-2,-2.525956929E-2,7.570466995E-1
9.220207121E0,-7.996809669E-3,-6.114081293E-2,2.662839890E-1
9.236198332E0,-5.993884057E-2,-6.387800723E-2,-3.083753586E-1
9.252189543E0,-6.446751207E-2,-2.608021349E-2,-4.113321304E-1
9.268150236E0,-4.514461756E-2,4.090161622E-2,4.366397858E-2
9.284141447E0,-1.350639388E-3,1.030589342E-1,5.992259979E-1
9.300132658E0,-8.148549125E-3,1.079632342E-1,5.608654022E-1
9.316123869E0,-1.703649387E-2,7.774151862E-2,-2.590370178E-2
9.332115080E0,-6.346141547E-2,3.591143340E-2,-4.378576279E-1
9.348045256E0,-9.070940316E-2,-7.613450289E-3,-5.001459122E-1
9.364005949E0,-6.981276721E-2,-4.555463791E-2,-2.079782486E-1
9.379936125E0,2.094801981E-3,-5.635996163E-2,2.087507248E-1
9.395866301E0,-9.002191946E-3,-5.739615858E-2,3.620662689E-1
9.411826994E0,-2.939740755E-2,-4.861304164E-2,2.638702393E-1
9.427848722E0,-4.306105152E-2,6.754755974E-3,5.546379089E-2
9.443809416E0,-3.577158973E-2,8.288873732E-2,-1.457548141E-1
9.459831144E0,-1.402725372E-2,1.187804043E-1,-1.003170013E-1
9.475822355E0,2.987704240E-2,1.293194890E-1,7.445049286E-2
9.491813566E0,1.477847062E-2,6.308500469E-2,4.093647003E-2
9.507743742E0,-1.768416259E-3,-3.050425649E-2,-2.176227570E-1
9.523734953E0,-9.204843082E-3,-4.591418058E-2,-2.364540100E-2
9.539726164E0,-4.365879297E-2,-5.208925903E-2,2.253980637E-1
9.555717375E0,-2.760372683E-2,9.507127106E-3,2.804594040E-1
9.571708586E0,-2.345242165E-2,1.913651079E-2,1.606931686E-1
9.587669279E0,7.586673368E-3,5.008926615E-2,-1.481952667E-1
9.603629972E0,-1.416264288E-2,3.939349204E-2,-3.182392120E-1
9.619560148E0,-1.648752950E-2,2.934733406E-2,-1.314640045E-1
9.635551359E0,-3.783448786E-2,1.121965796E-2,1.511106491E-1
9.651481535E0,-8.130192012E-2,-2.510005236E-2,2.469120026E-1
9.667503263E0,-4.873430356E-2,-2.951963991E-2,1.271858215E-1
9.683494474E0,-2.465976588E-2,-3.256819397E-2,-8.833312988E-2
9.699455168E0,-1.773768291E-2,-1.423963159E-2,-1.601819992E-1
9.715385344E0,-2.789828740E-2,1.538413018E-2,-5.483055115E-2
9.731346037E0,-3.351897374E-2,6.997790933E-2,1.223545074E-1
9.747245695E0,-3.378005326E-2,7.410964370E-2,1.606569290E-1
9.763236906E0,-2.390371636E-2,5.120345950E-2,6.246852875E-2
9.779197599E0,-3.490490094E-2,1.167475060E-2,-7.402515411E-2
9.795219328E0,-1.043063868E-2,1.149561256E-3,-1.386737823E-1
9.811210539E0,-1.483579539E-2,-1.984453201E-2,-2.852153778E-2
9.827171232E0,-1.710897684E-2,-3.073833883E-3,1.342992783E-1
9.843162443E0,-4.342509061E-2,7.347445935E-3,1.678085327E-1
9.859062101E0,-1.714164950E-2,1.640414819E-2,7.679462433E-2
9.875053312E0,-1.443698816E-2,8.206047118E-3,-1.028041840E-1
9.890983488E0,-2.577760816E-2,1.294626668E-2,-1.483068466E-1
9.907005217E0,-2.509609982E-2,-4.397071898E-3,-3.098106384E-2
9.922996428E0,-1.741664298E-2,2.042685822E-2,6.241130829E-2
9.938987638E0,-3.168219235E-3,1.199589297E-2,9.114837646E-2
9.954948332E0,-4.004226625E-2,1.773388311E-2,3.607463837E-2
9.970909025E0,-2.404359542E-2,1.985279098E-2,2.540588379E-3
9.986839201E0,-2.472175844E-2,1.809260622E-2,-1.901817322E-2
1.000283041E1,-3.979542851E-2,3.204807639E-2,-1.662635803E-2
1.001885214E1,-3.318058699E-2,3.479430825E-2,4.801940918E-2
1.003484335E1,-3.295782581E-2,2.458990365E-2,1.150541306E-1
1.005080405E1,-3.666645661E-2,2.688908391E-2,7.912921906E-2
1.006670370E1,-3.469661623E-2,8.938912302E-3,4.891395569E-3
1.008266440E1,-3.309244663E-2,4.376500845E-3,-1.411638260E-1
1.009859457E1,7.115320303E-3,8.309978992E-3,-2.153768539E-1
1.011458578E1,-2.523476630E-2,-3.682300448E-4,-6.534891129E-1
1.013051596E1,2.767860889E-2,9.396303445E-3,8.189716339E-1
1.014653769E1,-9.612935036E-2,4.443205148E-2,2.108259201E-1
1.016246786E1,-8.498557657E-2,-3.027513623E-2,2.299222946E-1
1.017845907E1,-2.688295767E-2,6.310644001E-2,-4.764080048E-1
1.019441977E1,-4.418138787E-2,8.204197511E-3,-5.506353378E-1
1.021041098E1,4.508487508E-2,8.660320938E-2,-8.613204956E-2
1.022631064E1,1.087509170E-1,5.688636750E-2,3.592557907E-1
1.024227133E1,3.094534576E-2,-1.186961681E-2,5.268936157E-1
1.025820151E1,-3.548410907E-2,-6.458291411E-2,-6.449985504E-2
1.027416220E1,-9.379966557E-2,-5.872164667E-2,-6.032257080E-1
1.029012289E1,-5.275266618E-2,-1.754350960E-3,-3.733501434E-1
1.030614462E1,-2.571520209E-2,8.149363846E-2,4.623107910E-1
1.032213583E1,1.667953795E-3,1.159500331E-1,8.358287811E-1
1.033812704E1,6.734433584E-3,7.795992494E-2,4.550466537E-1
1.035405722E1,-2.608824149E-2,5.209932849E-2,-3.471174240E-1
1.037001791E1,-9.255926311E-2,5.759021733E-3,-7.685279846E-1
1.038591757E1,-9.682397544E-2,-2.776596509E-2,-5.171279907E-1
1.040187826E1,-5.181751773E-2,-4.463800043E-2,1.437244415E-1
1.041780844E1,3.311700374E-2,-5.590105802E-2,5.292577744E-1
1.043379965E1,1.513482817E-2,-7.401292771E-2,3.832159042E-1
1.044976034E1,-1.674917340E-2,-5.322348699E-2,1.685333252E-2
1.046578207E1,-6.923330575E-2,-7.675617933E-3,-2.297868729E-1
1.048177328E1,-4.938180745E-2,9.948854893E-2,-2.178268433E-1
1.049776449E1,6.280172151E-3,1.699792594E-1,2.878093719E-2
1.051369467E1,3.623300791E-2,1.213106364E-1,2.250957489E-1
1.052965536E1,-1.149698347E-2,6.281642616E-2,1.364908218E-1
1.054567709E1,-8.901945315E-3,-5.234144628E-2,-2.010965347E-1
1.056166830E1,-3.717177548E-3,-9.150415659E-2,-1.460275650E-1
1.057765951E1,-5.577709991E-3,-5.587500334E-2,1.364974976E-1
1.059358969E1,1.574819908E-2,-3.847751766E-3,2.226924896E-1
1.060958090E1,-4.078375921E-2,5.515660346E-2,1.173400879E-1
1.062560263E1,1.374203619E-2,7.152294368E-2,-7.899570465E-2
1.064156332E1,-1.805217937E-2,4.996746778E-2,-1.747665405E-1
1.065758505E1,-2.530274540E-2,-9.694829583E-3,-7.660007477E-2
1.067351523E1,-3.560667112E-2,-3.775550798E-2,6.466865540E-2
1.068947592E1,-4.636291787E-2,-5.749639496E-2,1.125631332E-1
1.070537558E1,-1.714524999E-2,-5.664483458E-2,5.989360809E-2
1.072136679E1,-2.229057252E-2,-2.904931642E-2,-2.630233765E-2
1.073738852E1,-1.757837273E-2,3.444235399E-2,-3.109359741E-2
1.075337973E1,-3.682344034E-2,5.810302496E-2,4.312610626E-2
1.076937094E1,-2.039509453E-2,6.754905730E-2,7.185649872E-2
1.078527060E1,-2.033264749E-2,5.640435964E-2,3.354549408E-2
1.080126181E1,-1.109965611E-2,3.825462610E-2,-9.552955627E-3
1.081725302E1,-3.256513923E-2,-2.656521276E-3,-1.434230804E-2
1.083324423E1,-2.234192006E-2,-1.119393110E-2,3.593921661E-2
1.084923544E1,-2.665905282E-2,-5.951158702E-3,7.185268402E-2
1.086522665E1,-1.230480894E-2,-1.910763234E-2,6.945610046E-2
1.088121786E1,-1.233896986E-2,-9.650865570E-3,1.917266846E-2
1.089720907E1,-1.429126877E-2,-4.494013265E-3,-2.153301239E-2
1.091313925E1,-6.772266235E-3,-1.198299602E-2,-4.786968231E-2
1.092909994E1,-1.390493289E-2,1.484960131E-2,-2.392578125E-2
1.094499960E1,-1.158809848E-2,1.022409089E-2,3.832721710E-2
1.096099081E1,-4.272353835E-3,-3.632476553E-3,1.005783081E-1
1.097698202E1,-1.827553660E-2,1.564047672E-2,6.944942474E-2
1.099297323E1,-3.291371092E-2,1.563774422E-4,-7.171630859E-3
1.100896444E1,-1.707219332E-2,5.331097636E-3,-5.984687805E-2
1.102495566E1,-1.540550310E-2,1.977934502E-2,-4.548168182E-2
1.104094687E1,-3.241334856E-2,1.687159017E-2,2.395248413E-2
1.105693808E1,-1.516942587E-2,2.742236853E-2,9.578037262E-2
1.107286825E1,-2.610777505E-2,1.936931908E-2,7.902050018E-2
1.108882895E1,-3.645018116E-2,-1.120221987E-2,4.789352417E-2
1.110485068E1,-2.536176145E-2,-2.470579743E-2,-4.548168182E-2
1.112084189E1,-2.284463868E-2,-7.911356539E-2,-2.849016190E-1
1.113683310E1,3.825780749E-2,2.712184191E-2,3.687191010E-1
1.115276327E1,-1.934769005E-2,-6.299553439E-3,-3.854446411E-1
1.116875448E1,-5.992352962E-3,2.887725458E-2,6.991329193E-1
1.118468466E1,-8.921789378E-2,4.203519970E-2,-1.173019409E-1
1.120064535E1,-4.489427432E-2,1.259317994E-2,1.484432220E-1
1.121657553E1,-3.769291192E-2,8.976702578E-3,-2.250537872E-1
1.123256674E1,-2.097946405E-2,2.092163451E-2,-2.226610184E-1
1.124849692E1,6.528227776E-2,2.665363625E-2,-1.196384430E-2
1.126451864E1,4.621659219E-2,2.035691589E-2,4.645013809E-1
1.128047934E1,-1.268301858E-3,-5.336473137E-2,1.364974976E-1
1.129650107E1,-5.646205321E-2,-4.861193895E-2,-4.596652985E-1
1.131249228E1,-4.889546707E-2,-1.900837943E-2,-4.524784088E-1
1.132848349E1,-2.717332169E-2,5.277049169E-2,1.892004013E-1
1.134444418E1,-1.392927766E-2,9.419868886E-2,7.901744843E-1
1.136043539E1,-1.342864241E-3,9.975956380E-2,6.584529877E-1
1.137633505E1,-8.034359664E-3,5.340970680E-2,-6.943035126E-2
1.139232626E1,-2.635595761E-2,9.849246591E-3,-6.607885361E-1
1.140825644E1,-7.811335474E-2,-1.013596542E-3,-6.823329926E-1
1.142427817E1,-6.467307359E-2,-3.633023798E-2,-9.097671509E-2
1.144023886E1,-2.361793444E-2,-5.016078427E-2,3.950700760E-1
1.145623007E1,2.613524906E-2,-7.300025225E-2,5.195817947E-1
1.147219076E1,-2.305169031E-2,-9.192261100E-2,2.322654724E-1
1.148818197E1,-3.469097987E-2,-4.473116621E-2,-1.412496567E-1
1.150411215E1,-4.165853187E-2,4.185996205E-2,-3.088502884E-1
1.152010336E1,-1.406390220E-2,1.233062372E-1,-1.508331299E-1
1.153600302E1,3.227738664E-2,1.638445854E-1,1.963281631E-1
1.155196371E1,1.008586399E-2,1.061801463E-1,3.232183456E-1
1.156792441E1,-2.026403882E-2,8.948912844E-3,1.915454865E-2
1.158394614E1,3.367708996E-3,-6.260257959E-2,-3.615217209E-1
1.159990683E1,-1.855937764E-2,-7.184414566E-2,-1.508331299E-1
1.161592856E1,-1.831677556E-2,-6.400230341E-3,1.939344406E-1
1.163191977E1,1.750268787E-2,5.377653986E-2,3.184347153E-1
1.164788046E1,3.478772193E-2,6.033743173E-2,2.011137009E-1
1.166387167E1,-7.397416048E-3,3.352063149E-2,-5.985450745E-2
1.167986288E1,-3.922149166E-2,5.154238082E-3,-2.274427414E-1
1.169588461E1,-5.280758068E-2,-2.238999121E-2,-1.316757202E-1
1.171184530E1,-3.719488904E-2,-2.629813924E-2,5.027961731E-2
1.172780600E1,-3.033401910E-3,-2.377764508E-2,1.939306259E-1
1.174370566E1,-3.058719158E-4,-4.277200438E-3,9.097957611E-2
1.175969687E1,-2.874607407E-2,-3.932334483E-3,-2.873039246E-2
1.177559653E1,-4.059292749E-2,2.080032043E-2,-7.661342621E-2
1.179152670E1,-1.694331504E-2,3.834441304E-2,-7.422065735E-2
1.180748739E1,-1.524453517E-2,4.754055664E-2,5.746078491E-2
1.182347860E1,-8.379043080E-3,3.178322315E-2,1.101331711E-1
1.183946982E1,-2.034779266E-2,3.518392518E-2,6.464385986E-2
1.185549155E1,-1.775148138E-2,1.382404473E-2,-1.436424255E-2
1.187148276E1,-1.528871432E-2,-6.546585821E-3,-2.154731750E-2
1.188744345E1,-1.281639747E-2,3.336562077E-3,-1.436424255E-2
1.190340414E1,-5.095658707E-4,4.682018422E-3,9.536743164E-7
1.191936484E1,6.611214019E-3,1.327379234E-2,3.112506866E-2
1.193532553E1,-7.742036134E-3,6.638433319E-3,6.224918365E-2
1.195122519E1,-1.481383014E-2,-2.971976995E-2,5.506706238E-2
1.196721640E1,-2.206759341E-2,-1.428097021E-2,1.675987244E-2
1.198314657E1,-1.978708804E-2,-2.011708170E-2,-4.070091248E-2
1.199910727E1,-2.238396555E-2,2.086980641E-2,-3.830623627E-2
1.201503744E1,-1.306881942E-2,3.872011229E-2,-7.183074951E-3
1.203099814E1,-1.091364119E-2,4.155060649E-2,5.506706238E-2
1.204695883E1,-1.792464033E-2,1.849503815E-2,1.268939972E-1
1.206298056E1,-1.558237895E-2,5.019902717E-3,7.901096344E-2
1.207894125E1,-3.030829690E-2,1.522607636E-2,-2.154159546E-2
1.209496298E1,-2.627984062E-2,2.333522215E-2,-1.077308655E-1
1.211095419E1,-4.081810266E-2,6.138502434E-2,1.580228806E-1
1.212694540E1,4.528251011E-3,1.458367705E-2,5.386981964E-1
1.214287558E1,-1.874374598E-2,3.520766646E-2,1.053466797E-1
1.215886679E1,-9.688309394E-3,-3.959013149E-2,2.490005493E-1
1.217485800E1,-6.015456282E-3,3.234896809E-3,2.322473526E-1
1.219084921E1,1.003963687E-2,-2.979394421E-2,-5.195302963E-1
1.220684042E1,4.466211796E-2,3.632497042E-2,2.035140991E-1
1.222277060E1,-1.529141329E-2,3.116656281E-2,2.322387695E-1
1.223876181E1,-7.682763785E-2,3.942731023E-2,4.141979218E-1
1.225475302E1,-7.172984630E-2,2.827759087E-2,1.197175980E-1
1.227074423E1,-2.834517276E-3,1.594839431E-2,-1.412277222E-1
1.228673544E1,-2.877913043E-2,5.328845233E-3,-2.657089233E-1
1.230269614E1,4.018685222E-2,5.636207759E-3,-3.303661346E-1
1.231865683E1,1.101745442E-1,4.432267323E-2,1.484460831E-1
1.233458700E1,1.513410825E-2,-2.449109033E-2,4.477176666E-1
1.235054770E1,-4.076223075E-2,-3.358459100E-2,-1.675224304E-2
1.236653891E1,-7.012190670E-2,-5.331892893E-2,-4.548864365E-1
1.238253012E1,-5.055823550E-2,6.984987762E-3,-1.508312225E-1
1.239852133E1,-4.797504097E-2,6.416133046E-2,3.687076569E-1
1.241445151E1,-1.079990994E-3,9.223966300E-2,6.296768188E-1
1.243038168E1,1.360028517E-2,8.184988797E-2,3.352012634E-1
1.244637289E1,2.522229217E-3,4.690225795E-2,-2.824497223E-1
1.246239462E1,-5.342172459E-2,-5.001861602E-3,-6.199855804E-1
1.247838583E1,-7.590154558E-2,-2.106151730E-2,-4.428386688E-1
1.249437704E1,-7.065548003E-2,-4.923691973E-2,8.382987976E-2
1.251030722E1,-2.173273358E-3,-7.104966044E-2,4.764547348E-1
1.252626791E1,1.835513487E-2,-8.671669662E-2,4.142026901E-1
1.254219809E1,-2.294953447E-3,-5.069148540E-2,7.663631439E-2
1.255818930E1,-1.864216849E-2,1.024311408E-2,-2.345743179E-1
1.257421103E1,-3.049239330E-2,1.069432795E-1,-2.393388748E-1
1.259020224E1,-3.441019449E-3,1.530498266E-1,-4.302787781E-2
1.260619345E1,3.314991947E-3,1.222158670E-1,1.915864944E-1
1.262212362E1,-9.364122525E-3,5.616352707E-2,1.700372696E-1
1.263811484E1,-5.089170486E-2,-2.540089563E-2,-1.124725342E-1
1.265410605E1,-1.814108156E-2,-6.656056643E-2,-2.417583466E-1
1.267009726E1,-1.683144271E-2,-3.698680177E-2,8.144855499E-2
1.268608847E1,1.936842874E-2,4.458539188E-4,2.657995224E-1
1.270201864E1,1.513279136E-2,6.239692494E-2,1.987800598E-1
1.271800986E1,-5.629027262E-3,6.098898873E-2,-1.666450500E-2
1.273400107E1,-1.937940158E-2,3.540421277E-2,-2.057733536E-1
1.274999228E1,-2.758405358E-2,4.664078355E-3,-1.578912735E-1
1.276598349E1,-5.141664669E-2,-2.538225614E-2,2.643585205E-2
1.278191366E1,-3.590652347E-2,-3.884550929E-2,1.221799850E-1
1.279787436E1,-1.846677810E-2,-2.670869231E-2,1.245632172E-1
1.281380453E1,-1.352526806E-2,-2.046577260E-2,6.231784821E-2
1.282979574E1,-3.970931843E-2,-1.113198325E-2,9.654998779E-3
1.284572592E1,-3.714910895E-2,2.959880605E-2,-3.103828430E-2
1.286174765E1,-2.804815583E-2,6.507619470E-2,-3.821849823E-2
1.287773886E1,-2.166762576E-2,7.340563834E-2,2.480506897E-3
1.289369955E1,-2.218911424E-2,6.106152758E-2,5.753898621E-2
1.290972128E1,-1.265057642E-2,3.460301831E-2,1.922416687E-2
1.292568197E1,-1.703333482E-2,1.028890535E-2,-4.725456238E-3
1.294167318E1,-1.645109802E-2,-2.384647727E-3,9.633064270E-3
1.295763388E1,-1.595649868E-2,-2.799038030E-2,9.103298187E-2
1.297359457E1,-1.558193937E-2,-1.447550207E-2,9.582328796E-2
1.298952475E1,1.535031945E-2,9.219035506E-3,1.682472229E-2
1.300548544E1,-1.138985530E-2,-5.340307951E-3,-3.823280334E-2
1.302150717E1,-1.456724852E-2,8.061975241E-3,-6.217002869E-2
1.303746786E1,-2.009168640E-2,1.143066213E-2,2.470970154E-3
1.305345907E1,-2.055094205E-2,2.475732937E-2,4.077339172E-2
1.306938925E1,-1.801588386E-2,2.517154813E-2,2.401256561E-2
1.308534994E1,-1.557667367E-2,1.739758626E-2,3.598594666E-2
1.310137167E1,-2.977651171E-2,1.137686893E-2,3.120136261E-2
1.311736288E1,-6.339417398E-2,-1.591288112E-2,-6.607198715E-1
1.313335409E1,6.079991348E-3,7.826227695E-3,5.076522827E-1
1.314931479E1,-2.969901450E-2,2.015427127E-2,-4.667901993E-1
1.316530600E1,-1.765289903E-2,-6.528504193E-3,2.993564606E-1
1.318132773E1,-4.828835279E-2,3.982328251E-2,-2.106037140E-1
1.319728842E1,-4.771314189E-2,-2.397176810E-2,-2.465114594E-1
1.321324911E1,-2.544522285E-2,-4.071554914E-2,-3.494625092E-1
1.322924032E1,-4.576961510E-3,-3.869220614E-3,2.642154694E-2
1.324520102E1,-2.457707003E-2,2.817589790E-3,-5.499076843E-2
1.326119223E1,8.689198643E-3,8.227273822E-3,-8.133697510E-2
1.327718344E1,2.237245813E-2,1.274274848E-2,-2.344131470E-3
1.329314413E1,-1.308558229E-2,1.875511371E-2,2.298831940E-1
1.330913534E1,-6.069015339E-2,2.250218764E-3,2.634077072E-1
1.332506552E1,-6.604509056E-2,1.049877331E-2,1.204586029E-2
1.334108725E1,-2.188137174E-2,2.794399112E-2,-1.555089951E-1
1.335707846E1,-6.249979138E-2,3.289782628E-2,-2.105617523E-1
1.337303915E1,2.394641936E-2,2.521284670E-2,-2.991790771E-1
1.338896933E1,1.236096174E-1,5.840262398E-2,1.748218536E-1
1.340493002E1,6.785148382E-2,-4.738354124E-3,4.285898209E-1
1.342095175E1,-5.210787058E-2,-5.766548961E-2,-6.460189819E-2
1.343694296E1,-7.875193655E-2,-6.322576106E-2,-4.428710938E-1
1.345293417E1,-6.876473129E-2,-1.509032957E-2,-3.347778320E-2
1.346889487E1,-5.982286483E-2,7.103204727E-2,4.908390045E-1
1.348485556E1,3.410944343E-2,1.186189204E-1,5.339488983E-1
1.350087729E1,2.666296065E-2,1.042707711E-1,1.389665604E-1
1.351686850E1,6.961837411E-3,9.668701887E-2,-3.781318665E-1
1.353282919E1,-6.516728550E-2,2.647277713E-2,-5.073280334E-1
1.354875937E1,-1.062317789E-1,-3.871734440E-2,-1.458454132E-1
1.356472006E1,-6.780627370E-2,-8.131370693E-2,2.180051804E-1
1.358074179E1,-7.716082036E-3,-1.194689050E-1,3.472585678E-1
1.359673300E1,4.748361185E-3,-1.093199849E-1,1.581220627E-1
1.361272421E1,-3.775902092E-3,-5.605386943E-2,-1.004219055E-1
1.362868490E1,-2.419759892E-2,4.490148649E-2,-1.961688995E-1
1.364467612E1,-1.868031546E-2,1.429494619E-1,-5.491256714E-2
1.366060629E1,1.588811167E-2,1.475000829E-1,1.414003372E-1
1.367659750E1,2.250399627E-2,1.087379307E-1,2.371721268E-1
1.369261923E1,-1.681385003E-2,3.233082592E-2,7.918071747E-2
1.370861044E1,-5.904037133E-2,-7.346607745E-2,-1.649980545E-1
1.372460165E1,-4.316365812E-3,-6.161077321E-2,-3.158340454E-1
1.374053183E1,-2.395374700E-2,-2.629247867E-2,1.692104340E-2
1.375649252E1,-1.498292200E-3,4.968199879E-2,2.802505493E-1
1.377242270E1,2.215842716E-3,9.254005551E-2,2.611007690E-1
1.378841391E1,-2.308326215E-2,5.403294414E-2,2.411556244E-2
1.380440512E1,-2.986991592E-2,1.567774266E-2,-1.482191086E-1
1.382036581E1,-3.631015867E-2,-2.734301239E-2,-1.553840637E-1
1.383632651E1,-2.168777958E-2,-3.101832047E-2,-1.175594330E-2
1.385225668E1,-6.283218041E-3,-2.890355699E-2,1.534156799E-1
1.386824789E1,-2.688633464E-2,-2.731622942E-2,1.390390396E-1
1.388423910E1,-1.640537195E-2,-2.843961120E-4,1.454925537E-2
1.390023031E1,-3.937811777E-2,1.222700253E-2,-9.318065643E-2
1.391616049E1,-3.654271364E-2,4.805923998E-2,-8.839321136E-2
1.393209067E1,-2.954396233E-2,5.457574874E-2,4.958152771E-3
1.394802084E1,-3.472645208E-2,5.737822875E-2,1.031055450E-1
1.396401205E1,-1.829020865E-2,2.948960662E-2,9.591865540E-2
1.398003378E1,-1.370815746E-2,-2.479050308E-3,1.691532135E-2
1.399602499E1,-3.519358113E-2,-1.524041593E-2,-2.857112885E-2
1.401198568E1,-4.273502529E-2,-7.601954043E-3,-4.772663116E-2
1.402791586E1,-2.628964372E-2,2.079411596E-2,-4.641532898E-3
1.404390707E1,5.046755075E-3,3.505127132E-2,4.323101044E-2
1.405992880E1,1.216366142E-2,2.177697048E-2,6.956195831E-2
1.407588949E1,-4.580205306E-3,2.403149009E-2,2.886104584E-2
1.409188071E1,-2.111067623E-2,-2.693500184E-2,2.168178558E-2
1.410781088E1,-1.613079756E-2,-3.698240966E-2,-4.652976990E-3
1.412377157E1,-3.763455153E-2,-4.885305092E-2,-6.929683685E-2
1.413979330E1,5.329465494E-3,2.844517305E-2,5.172796249E-1
1.415575400E1,-2.126099169E-2,3.847869486E-2,-4.092779160E-1
1.417174521E1,-5.730055273E-5,7.212603092E-2,4.239034653E-1
1.418770590E1,-5.524522811E-2,5.053861439E-2,-2.823848724E-1
1.420369711E1,-2.377871983E-2,1.240007579E-2,3.017978668E-1
1.421971884E1,-1.605563611E-2,5.566477776E-3,2.646255493E-2
1.423571005E1,9.538009763E-4,7.607638836E-4,5.758666992E-2
1.425167074E1,-3.927115351E-2,1.463107765E-4,2.885818481E-2
1.426760092E1,-3.134910390E-2,1.083637401E-2,3.365230560E-2
1.428353110E1,-5.245008692E-2,2.153585106E-2,5.999469757E-2
1.429955282E1,-1.762516610E-2,5.388855934E-4,5.042552948E-2
1.431554404E1,-1.516188961E-2,2.782265469E-2,-1.181983948E-2
1.433150473E1,8.940324187E-4,1.667615026E-3,-1.004076004E-1
1.434743490E1,-6.398936268E-3,1.266412437E-4,-1.602792740E-1
1.436339560E1,2.423653379E-3,1.594346762E-2,-1.186847687E-2
1.437941733E1,-1.887692604E-3,1.598615944E-2,3.041458130E-1
1.439537802E1,-4.429777712E-2,1.317425445E-2,3.257036209E-1
1.441139975E1,-5.392297730E-2,2.198499069E-2,-3.577041626E-2
1.442739096E1,-1.901990920E-2,2.040964365E-2,-2.320442200E-1
1.444335165E1,-6.154965237E-2,2.939239517E-2,-1.961240768E-1
1.445937338E1,-4.095790442E-3,1.368747652E-2,-2.584218979E-1
1.447533407E1,9.610167891E-2,6.187725067E-2,2.275304794E-1
1.449135580E1,6.777752936E-2,-6.200596690E-4,5.267829895E-1
1.450731650E1,-1.131959539E-2,-4.930840433E-2,-1.292028427E-1
1.452327719E1,-7.434825599E-2,-5.592732877E-2,-5.744962692E-1
1.453920737E1,-8.429798484E-2,2.188291401E-3,-1.722984314E-1
1.455519858E1,-6.370288879E-2,6.449207664E-2,4.788885117E-1
1.457118979E1,5.991213955E-3,1.317565441E-1,6.728210449E-1
1.458718100E1,3.737588972E-2,1.083272845E-1,3.233318329E-1
1.460317221E1,3.947472945E-2,5.575140566E-2,-2.607307434E-1
1.461913290E1,-6.340805441E-2,-4.744626582E-3,-5.718841553E-1
1.463512411E1,-1.165644377E-1,-5.731727183E-2,-3.588371277E-1
1.465105429E1,-7.365228236E-2,-6.803851575E-2,8.637905121E-2
1.466704550E1,-6.494229659E-3,-8.383095264E-2,3.688488007E-1
1.468297568E1,2.433139458E-2,-6.082182750E-2,3.209247589E-1
1.469899740E1,6.237097085E-3,-3.138334304E-2,6.716728210E-2
1.471498862E1,5.421973765E-4,3.673601896E-2,-1.530551910E-1
1.473097983E1,-8.095155470E-3,8.266480267E-2,-1.602134705E-1
1.474691000E1,-2.891449258E-2,1.299723685E-1,1.694583893E-2
1.476290121E1,-9.678799659E-3,1.160353050E-1,2.156467438E-1
1.477886191E1,-6.435093004E-3,4.898644239E-2,1.845254898E-1
1.479485312E1,-2.068208903E-2,-2.757504955E-2,-8.600616455E-2
1.481087484E1,2.002943121E-2,-6.715078652E-2,-3.398008347E-1
1.482686606E1,-1.518604439E-2,-4.771403596E-2,-1.004228592E-1
1.484282675E1,-3.532410040E-2,6.657738239E-3,2.778196335E-1
1.485875693E1,-1.276354212E-2,5.085114390E-2,3.280954361E-1
1.487471762E1,4.817662761E-3,5.344978347E-2,1.270170212E-1
1.489064780E1,-1.874146610E-2,1.012424007E-2,-1.291074753E-1
1.490657797E1,-3.467483819E-2,-1.178175583E-2,-2.416019440E-1
1.492253866E1,-4.670917243E-2,-5.312811583E-3,-1.123256683E-1
1.493856039E1,-2.853083052E-2,1.676648110E-2,1.318502426E-1
1.495455160E1,-2.033486590E-2,-9.571425617E-4,1.701345444E-1
1.497054281E1,-1.266072690E-2,5.744393915E-3,8.394527435E-2
1.498647299E1,-2.875530347E-2,-1.750390977E-3,2.171039581E-2
1.500246420E1,-3.712100163E-2,2.399915084E-2,-4.052448273E-2
1.501836386E1,-2.697688714E-2,3.486331552E-2,-8.840274811E-2
1.503435507E1,-5.923470017E-3,4.006236047E-2,-2.615642548E-2
1.505031576E1,-1.400737278E-2,3.579562530E-2,5.045795441E-2
1.506633749E1,-3.361269087E-2,5.555752665E-3,8.877468109E-2
1.508232870E1,-2.917689458E-2,-2.661347389E-4,7.682514191E-2
1.509825888E1,-2.426803485E-2,1.219287515E-3,4.813194275E-2
1.511421957E1,-3.833891451E-2,4.596777260E-3,-8.137359619E-1
1.513021078E1,-1.439043973E-2,-1.541302353E-2,2.188587189E-2
1.514620199E1,-2.869964950E-2,6.239066273E-2,-1.480731964E-1
1.516219321E1,-5.013512075E-2,-1.158043742E-3,-3.970584869E-1
1.517815390E1,-9.667756967E-3,1.317878813E-2,3.235960007E-1
1.519411459E1,-4.082005844E-2,-3.350342065E-2,-1.983299255E-1
1.521004477E1,-1.411034726E-2,-2.224534005E-2,3.810949326E-1
1.522606650E1,-4.146813415E-3,-6.152950227E-3,7.650375366E-3
1.524205771E1,-3.038797900E-2,2.175762504E-2,-2.102470398E-2
1.525804892E1,-1.837379858E-2,3.357690573E-2,-4.254627228E-2
1.527404013E1,-2.587329224E-2,5.419937521E-2,-8.965492249E-3
1.529006186E1,-2.596510388E-2,3.434914351E-2,6.289577484E-2
1.530605307E1,-9.179789573E-3,3.500156850E-2,2.942466736E-2
1.532204428E1,-1.646376774E-2,2.286995947E-2,6.060981750E-2
1.533797446E1,-1.867421903E-2,7.532835007E-3,5.589389801E-2
1.535393515E1,-5.672149360E-2,6.289795041E-3,3.681850433E-2
1.536995688E1,-3.896755725E-2,7.423549891E-3,3.211307526E-2
1.538594809E1,-8.252533153E-3,2.101686597E-2,1.543045044E-2
1.540193930E1,-1.597951353E-2,2.348507941E-2,-5.393218994E-2
1.541786947E1,-1.250811666E-2,2.750927210E-2,-8.022117615E-2
1.543383017E1,-2.698816732E-2,9.196087718E-3,-4.189014435E-2
1.544985190E1,-1.993989199E-2,-4.698827863E-3,6.109142303E-2
1.546584311E1,-1.727712154E-2,1.687300205E-2,2.311563492E-1
1.548183432E1,-3.415703401E-2,1.363441348E-3,2.480974197E-1
1.549779501E1,-4.429117963E-2,4.095420241E-3,-1.975345612E-2
1.551375571E1,-3.051191755E-2,9.410411119E-3,-2.469272614E-1
1.552971640E1,-6.081070751E-2,2.687433362E-2,-1.031379700E-1
1.554564657E1,-5.186917633E-2,5.047661066E-2,-1.701679230E-1
1.556163778E1,1.067420170E-1,7.165206969E-2,5.958175659E-2
1.557765951E1,8.017997444E-2,3.643232584E-2,4.665851593E-1
1.559362021E1,-8.592300117E-3,-3.148841858E-2,3.107070923E-2
1.560958090E1,-3.853961080E-2,-4.550790787E-2,-4.929428101E-1
1.562554159E1,-7.094536722E-2,-3.095351160E-2,-3.252468109E-1
1.564153280E1,-4.675305635E-2,4.265744984E-2,2.540483475E-1
1.565755453E1,-2.126476727E-2,8.863832057E-2,5.533132553E-1
1.567351523E1,-1.313589513E-2,9.436778724E-2,4.506855011E-1
1.568953696E1,1.276490279E-2,9.232687950E-2,5.972862244E-3
1.570549765E1,-6.556309760E-3,3.633344173E-2,-3.932266235E-1
1.572148886E1,-7.767701894E-2,-2.229094505E-3,-4.360265732E-1
1.573738852E1,-4.601310939E-2,-4.907536507E-2,-8.650112152E-2
1.575337973E1,-3.739181533E-2,-4.018795490E-2,2.509603500E-1
1.576940146E1,-1.767277718E-3,-4.779037833E-2,2.869577408E-1
1.578539267E1,-1.330824569E-3,-5.869483948E-2,1.101198196E-1
1.580138388E1,-2.222468145E-2,3.573149443E-3,-4.983615875E-2
1.581734457E1,-1.650837995E-2,6.330043077E-2,-1.236553192E-1
1.583333578E1,-2.283530682E-2,1.154244244E-1,-6.353855133E-2
1.584932699E1,-3.635459580E-3,1.463563442E-1,9.704780579E-2
1.586531821E1,-1.724112965E-2,1.087839007E-1,2.145948410E-1
1.588130942E1,-4.557246715E-2,5.153176188E-2,4.734039307E-2
1.589727011E1,-2.844538540E-4,-1.164674759E-3,-1.749668121E-1
1.591323080E1,-8.632689714E-3,-4.012882710E-2,-2.633476257E-1
1.592916098E1,-3.858919442E-2,-3.523203731E-2,-4.068946838E-2
1.594512167E1,-3.270172700E-2,7.324308157E-3,2.442445755E-1
1.596111288E1,4.287349060E-3,6.976851821E-2,2.325458527E-1
1.597713461E1,2.725343779E-2,5.474069715E-2,8.730125427E-2
1.599309530E1,1.768353023E-2,5.233255029E-2,-1.090221405E-1
1.600911703E1,-1.811037399E-2,3.332865238E-2,-1.083145142E-1
1.602510824E1,-5.312198028E-2,1.984044909E-2,9.278297424E-3
1.604109946E1,-2.930893749E-2,2.036014199E-2,5.016613007E-2
1.605702963E1,-3.377655149E-2,8.318930864E-3,4.798507690E-2
1.607302084E1,9.157015011E-3,2.813071012E-3,-9.228706360E-3
1.608904257E1,-1.791585237E-2,1.639214158E-2,-3.052330017E-2
1.610503378E1,-2.482163534E-2,3.295269608E-2,-3.958702087E-3
1.612096396E1,-5.599397421E-2,4.708126187E-2,-4.562301636E-1
1.613698569E1,-4.941794649E-2,7.494777441E-3,2.718925476E-1
1.615300741E1,-5.259955674E-2,9.148365259E-2,-2.161903381E-1
1.616899862E1,-1.976013929E-2,-5.838215351E-3,2.438039780E-1
1.618495932E1,-1.088380627E-2,3.158023953E-2,2.081699371E-1
1.620092001E1,-4.697058350E-2,-2.533286810E-3,-1.435108185E-1
1.621688070E1,-2.756348625E-2,1.121434569E-2,-3.071403503E-2
1.623287192E1,-3.815641627E-3,3.434687853E-2,-1.127719879E-2
1.624877157E1,3.102276474E-3,5.023676157E-2,1.055908203E-2
1.626476279E1,6.125234067E-4,3.254503012E-2,4.437541962E-2
1.628075400E1,-1.857221127E-2,2.855831385E-2,4.006385803E-3
1.629674521E1,-3.836095706E-2,2.889871597E-2,-9.994506836E-3
1.631270590E1,-3.198272735E-2,3.670132160E-2,9.513854980E-3
1.632863608E1,-1.608676463E-2,2.498412132E-2,2.425861359E-2
1.634462729E1,-1.200979203E-2,3.923809528E-2,4.381656647E-2
1.636058798E1,-1.238688454E-2,2.693742514E-2,-2.758884430E-2
1.637657919E1,-1.256889477E-2,2.482163906E-2,-2.480411530E-2
1.639253988E1,-1.734047756E-2,3.544002771E-2,1.624870300E-2
1.640847006E1,-2.468286455E-2,3.147554398E-2,1.182937622E-2
1.642440024E1,-2.276333049E-2,3.841823339E-2,4.099559784E-2
1.644036093E1,-3.551575541E-2,3.725147247E-2,6.543636322E-2
1.645638266E1,-3.816357255E-2,3.296971321E-2,3.964710236E-2
1.647234335E1,-1.850795373E-2,1.677966118E-2,4.259014130E-2
1.648836508E1,-1.719719917E-2,1.042503119E-2,1.439762115E-2
1.650432577E1,-4.367653280E-3,1.357477903E-2,-5.717754364E-2
1.652031698E1,-1.073044911E-2,1.296341419E-2,-1.044187546E-1
1.653627768E1,-1.614608988E-2,1.667958498E-2,-1.137704849E-1
1.655223837E1,-1.840741746E-2,3.572130203E-2,4.201507568E-2
1.656826010E1,-3.013936430E-2,4.471313953E-2,2.769937515E-1
1.658422079E1,-5.647503585E-2,4.856741428E-2,2.275638580E-1
1.660021200E1,-3.956699371E-2,2.501928806E-2,-1.137046814E-1
1.661611166E1,-4.051572084E-2,2.416497469E-2,-2.301340103E-1
1.663210287E1,-4.989648238E-2,5.018264055E-2,-1.818857193E-1
1.664803305E1,-1.194013283E-2,2.775990963E-2,-8.622264862E-2
1.666405478E1,7.856725156E-2,5.939120054E-2,4.211473465E-1
1.668004599E1,2.940181270E-2,1.601785421E-2,4.336547852E-1
1.669600668E1,9.601972997E-3,-2.668374777E-2,-3.408870697E-1
1.671196738E1,-9.038627148E-3,-1.547515392E-2,-6.609621048E-1
1.672795859E1,-4.921588302E-2,-9.744107723E-3,-2.685604095E-1
1.674398031E1,-8.998583257E-2,7.570165396E-2,3.748531342E-1
1.675997152E1,-3.910027444E-2,1.182464361E-1,5.927743912E-1
1.677593222E1,1.172436029E-2,1.264067292E-1,3.449220657E-1
1.679189291E1,2.900036797E-2,9.160161018E-2,-6.499767303E-2
1.680782309E1,-2.249841020E-2,2.689826488E-2,-2.955598831E-1
1.682375326E1,-6.829906255E-2,-2.694553137E-2,-2.755441666E-1
1.683971396E1,-7.305346429E-2,-2.412688732E-2,-8.862781525E-2
1.685573569E1,-3.626902774E-2,-3.517633677E-2,7.890129089E-2
1.687175741E1,-1.269986108E-2,-3.266447783E-2,1.772470474E-1
1.688771811E1,-7.916823030E-3,-6.435990334E-3,1.131877899E-1
1.690364828E1,-2.909572050E-2,1.879197359E-2,1.588916779E-2
1.691960898E1,-4.782462120E-2,5.677169561E-2,-8.864402771E-2
1.693563070E1,-4.469923675E-2,1.073479652E-1,-1.000480652E-1
1.695159140E1,-1.441410929E-2,1.198574901E-1,-2.307415009E-2
1.696761313E1,-1.685645059E-2,1.034017205E-1,1.473054886E-1
1.698357382E1,-2.652126178E-2,6.248992682E-2,7.610511780E-2
1.699956503E1,-1.994692162E-2,-6.796240807E-3,-5.238628387E-2
1.701558676E1,-1.220295951E-2,-2.892869711E-2,-1.235446930E-1
1.703160849E1,-2.722576819E-2,-2.529978752E-3,-3.933238983E-2
1.704759970E1,-2.332739159E-2,3.964477777E-2,8.785629272E-2
1.706359091E1,-7.602240890E-3,7.771283388E-2,1.361885071E-1
1.707958212E1,1.696489006E-2,7.045245171E-2,2.431297302E-2
1.709557333E1,1.900717244E-2,8.045816422E-2,-6.365299225E-2
1.711147299E1,-6.923824549E-5,2.317619324E-2,1.809844971E-1
1.712743368E1,-6.385747343E-2,1.971870661E-2,-4.797086716E-1
1.714336386E1,-3.853437304E-2,7.950723171E-3,5.258445740E-1
1.715932455E1,-4.111614451E-2,3.004908562E-3,-3.336582184E-1
1.717534628E1,-1.995936781E-2,-9.342193604E-3,2.960538864E-1
1.719133749E1,-1.100208983E-2,6.388926506E-2,-3.983869553E-1
1.720726767E1,-3.093620390E-2,2.037519217E-2,-8.034610748E-2
1.722325888E1,-5.326204747E-2,7.098448277E-2,2.184782028E-1
1.723925009E1,-4.401161149E-2,8.182471991E-2,2.277326584E-1
1.725524130E1,-2.955553308E-2,9.743964672E-2,2.629566193E-2
1.727120199E1,1.502025872E-2,1.039216518E-1,-1.516485214E-1
1.728713217E1,-1.817553490E-2,1.046319008E-1,-2.393350601E-1
1.730312338E1,-2.465548739E-2,8.366775513E-2,-1.528053284E-1
1.731908407E1,-3.684441745E-2,5.033260584E-2,1.275453568E-1
1.733507529E1,-6.553933024E-3,-2.710747719E-2,2.549905777E-1
1.735103598E1,1.859866083E-3,-3.782922029E-2,1.290960312E-1
1.736699667E1,-9.228363633E-4,-3.739285469E-2,-5.397510529E-2
1.738295736E1,-6.691195071E-3,-2.330791950E-2,-8.151912689E-2
1.739891806E1,-1.909469068E-2,1.456493139E-2,-1.821899414E-2
1.741493979E1,-1.870431751E-2,6.971549988E-2,2.113246918E-2
1.743090048E1,-1.361308247E-2,9.940642118E-2,3.166198730E-3
1.744692221E1,-4.227742553E-3,9.142142534E-2,4.281044006E-2
1.746288290E1,-1.334521919E-2,4.865080118E-2,5.637454987E-2
1.747887411E1,-3.947747871E-2,-1.556479931E-2,6.994915009E-2
1.749480429E1,-4.386945069E-2,-4.934591055E-2,4.033756256E-2
1.751079550E1,-2.167812362E-2,-4.241931438E-2,-2.952384949E-2
1.752681723E1,-1.040444523E-2,-4.101997614E-2,-4.780483246E-2
1.754280844E1,-6.738223135E-3,-2.460134029E-2,-7.522678375E-2
1.755879965E1,-1.143581793E-2,-6.743252277E-3,-8.831787109E-2
1.757472983E1,-2.188046277E-2,-9.376704693E-3,6.323814392E-3
1.759072104E1,-4.043205082E-2,-1.843202114E-2,1.322078705E-1
1.760674276E1,-4.181088880E-2,-3.205549717E-2,2.463779449E-1
1.762273398E1,-2.240933478E-2,-1.896706223E-2,1.620674133E-1
1.763872519E1,-4.445627332E-3,-5.187004805E-3,-1.424102783E-1
1.765474692E1,-1.055919379E-2,1.771491766E-2,-2.675094604E-1
1.767070761E1,-2.610635757E-2,5.006334186E-2,-7.446956635E-2
1.768669882E1,-5.924803764E-2,4.402792454E-2,9.937191010E-2
1.770262900E1,2.892035991E-2,6.852090359E-3,-4.949474335E-2
1.771858969E1,6.266181171E-2,4.053413868E-3,1.431779861E-1
1.773461142E1,3.210181743E-2,-5.203071237E-2,2.287425995E-1
1.775060263E1,-1.460510492E-2,-7.617381215E-2,-1.524019241E-1
1.776659384E1,-1.602850854E-3,-6.457582116E-2,-1.745033264E-1
1.778252402E1,-1.454607397E-2,-9.697705507E-3,-1.236915588E-2
1.779851523E1,-6.269155443E-2,3.465667367E-2,1.043119431E-1
1.781441488E1,-5.604823679E-2,7.751514018E-2,2.307386398E-1
1.783040610E1,-2.632112056E-2,7.366274297E-2,2.664060593E-1
1.784633627E1,2.034776658E-2,2.669617534E-3,6.281471252E-2
1.786232748E1,1.179116219E-2,-6.504110992E-2,-1.455287933E-1
1.787828818E1,-4.809542745E-2,-1.108576655E-1,-1.983575821E-1
1.789427939E1,-6.763790548E-2,-9.774912894E-2,-8.611488342E-2
1.791027060E1,-7.213324308E-2,-6.646798551E-2,1.218347549E-1
1.792623129E1,-4.394183680E-2,-3.200452030E-2,1.311120987E-1
1.794216147E1,3.658078611E-3,-7.342383265E-3,-2.474594116E-2
1.795812216E1,1.729339361E-2,2.438591421E-2,-1.470613480E-1
1.797414389E1,1.941115409E-2,2.981109917E-2,-8.983325958E-2
1.799010458E1,1.021131128E-2,2.249409258E-2,9.907531738E-2
1.800606528E1,-1.978465915E-2,-1.177985221E-2,2.545347214E-1
1.802199545E1,-5.422610044E-2,-3.497756273E-2,2.041816711E-1
1.803795614E1,-4.721413553E-2,-5.982216075E-2,-7.597637177E-2
1.805397787E1,-2.419076487E-2,-5.332458392E-2,-2.771587372E-1
1.806999960E1,-1.037437096E-2,-1.817306131E-2,-1.527824402E-1
1.808596030E1,-6.570775062E-3,8.847862482E-4,1.176309586E-1
1.810189047E1,3.378706425E-2,1.286799088E-2,1.989564896E-1
1.811788168E1,-4.731129855E-3,5.480731279E-2,2.176666260E-2
1.813390341E1,1.249105856E-2,-5.578421801E-2,1.031656265E-1
1.814986410E1,1.967749000E-2,-2.984112687E-2,3.689098358E-1
1.816582480E1,-4.898387194E-2,-3.716757149E-2,-4.164009094E-1
1.818181601E1,-9.596936405E-3,-3.208039701E-2,3.186159134E-1
1.819780722E1,-4.762269929E-2,-2.781466767E-2,-2.918853760E-1
1.821379843E1,-7.060103863E-2,-3.355444595E-2,-9.073829651E-2
1.822975912E1,-4.676055163E-2,-3.669084981E-2,1.151971817E-1
1.824568930E1,-3.028814867E-2,-1.466697454E-2,-1.193933487E-1
1.826168051E1,6.888478994E-3,-1.288542897E-2,-2.485971451E-1
1.827767172E1,-6.441425532E-3,-9.988255799E-3,1.252746582E-2
1.829363241E1,-3.591973707E-2,-1.789461821E-2,1.946926117E-1
1.830959311E1,-3.245558590E-2,-2.240937948E-2,1.350278854E-1
1.832552328E1,-3.361440450E-2,-1.317432523E-2,5.918502808E-3
1.834151449E1,-1.679978520E-2,-2.870348096E-2,-8.256912231E-3
1.835750570E1,-1.350257546E-2,-3.399109840E-2,3.506469727E-2
1.837349692E1,-1.032366045E-2,-2.201734483E-2,-2.213954926E-2
1.838945761E1,-9.276175871E-3,-2.850332856E-2,-3.023147583E-4
1.840541830E1,-3.072313219E-2,-3.325040638E-2,1.077299118E-1
1.842144003E1,-3.337081894E-2,-2.825477719E-2,9.841060638E-2
1.843743124E1,1.103823073E-2,-4.410184920E-2,-5.937004089E-2
1.845339194E1,1.558617316E-2,-5.371859670E-2,-1.428794861E-1
1.846935263E1,-1.627386361E-2,-3.426715732E-2,-9.914493561E-2
1.848528280E1,-7.040600479E-2,-3.498989344E-2,1.602554321E-2
1.850127402E1,-1.928905770E-2,-6.877720356E-3,1.840887070E-1
1.851723471E1,2.730711363E-2,2.895802259E-3,3.304290771E-1
1.853322592E1,2.092789486E-2,-2.654430270E-2,2.083768845E-1
1.854915610E1,-4.900877178E-2,-5.799940228E-2,-1.604156494E-1
1.856514731E1,-7.173194736E-2,-3.880801797E-2,-2.225904465E-1
1.858107748E1,-9.614608437E-2,-2.207753062E-2,-4.751014709E-2
1.859703818E1,-2.743923664E-2,-1.684764028E-2,-3.032007217E-1
1.861305990E1,9.487494826E-2,1.936918497E-2,1.188564301E-1
1.862905112E1,9.223796427E-2,-4.416379333E-2,5.168609619E-1
1.864501181E1,2.418786287E-2,-9.663027525E-2,1.666164398E-2
1.866100302E1,-7.740183175E-2,-8.660787344E-2,-3.639068604E-1
1.867696371E1,-8.471195400E-2,-4.458403587E-2,-9.533691406E-2
1.869295492E1,-9.261617810E-2,2.557998896E-2,2.452478409E-1
1.870891562E1,-4.593777284E-2,6.325128675E-2,3.941583633E-1
1.872487631E1,-7.114727516E-3,6.314083934E-2,1.692008972E-1
1.874080649E1,1.841515675E-2,-7.569134235E-3,-2.905406952E-1
1.875679770E1,1.808588393E-3,-3.716740012E-2,-4.459972382E-1
1.877281943E1,-4.255072400E-2,-6.130194664E-2,-9.354114532E-2
1.878878012E1,-8.000494540E-2,-9.627687931E-2,4.026346207E-1
1.880474081E1,-5.248958617E-2,-1.055602729E-1,3.621644974E-1
1.882073202E1,-4.822590202E-2,-1.219841540E-1,2.209377289E-2
1.883669272E1,-6.643832475E-2,-6.962949038E-2,-2.843790054E-1
1.885268393E1,-3.102000244E-2,8.181393147E-3,-3.630037308E-1
1.886867514E1,1.870223507E-2,9.026113153E-2,-1.179714203E-1
1.888466635E1,4.130465910E-2,1.232519150E-1,2.328605652E-1
1.890065756E1,7.085487247E-3,3.187474608E-2,3.887100220E-1
1.891664877E1,-6.177078933E-3,-3.618901968E-2,3.097724915E-1
1.893260947E1,-4.911519587E-2,-1.102353930E-1,4.856681824E-2
1.894857016E1,-4.300314561E-2,-1.183862388E-1,-3.131294250E-1
1.896450033E1,-2.261772379E-2,-9.017735720E-2,-5.043258667E-1
1.898049154E1,-3.256311640E-2,-2.880692482E-3,8.318710327E-2
1.899645224E1,-3.143529221E-2,5.332374573E-2,4.073696136E-1
1.901244345E1,1.582887955E-2,6.396025419E-2,3.000860214E-1
1.902843466E1,4.203617573E-5,-3.781437874E-3,7.020187378E-2
1.904439535E1,-1.608957350E-2,-5.410724878E-2,-1.909008026E-1
1.906032553E1,-4.517011717E-2,-7.252782583E-2,-1.476287842E-1
1.907631674E1,-4.136880487E-2,-6.693077087E-2,1.808271408E-1
1.909233847E1,-4.263522476E-2,-4.208588600E-2,5.679130554E-2
1.910829916E1,-4.028554261E-2,-3.684139252E-2,-1.750011444E-1
1.912425986E1,-6.395883858E-2,-2.477848530E-2,-6.748170853E-1
1.914025107E1,2.236664295E-5,-6.231111288E-2,2.595424652E-1
1.915621176E1,-1.019660942E-2,9.036958218E-3,8.996391296E-2
1.917220297E1,-3.437783569E-3,-5.887264013E-2,-2.403373718E-1
1.918819418E1,-1.656204090E-2,-1.279711723E-4,-5.111408234E-2
1.920415488E1,-3.781057894E-2,-1.484549046E-2,-5.462932587E-1
1.922014609E1,-6.055277586E-2,-7.303357124E-4,1.750984192E-1
1.923613730E1,-3.684215620E-2,1.736164093E-3,3.742828369E-1
1.925209799E1,1.743000560E-2,-3.465038538E-2,2.567911148E-1
1.926805868E1,3.115269728E-2,-6.009936333E-2,-9.106826782E-2
1.928401938E1,-1.086797565E-2,-6.800705194E-2,-2.329683304E-1
1.930004111E1,-3.049436212E-2,-4.507732391E-2,-5.136394501E-2
1.931603232E1,-5.210473388E-2,-2.252614498E-2,1.064252853E-1
1.933199301E1,-3.384812176E-2,1.755070686E-2,1.563749313E-1
1.934795370E1,-1.086826622E-2,2.392333746E-2,8.407211304E-2
1.936394491E1,-5.739435554E-3,5.674898624E-3,-6.248092651E-2
1.937993612E1,-9.786069393E-3,-1.771777868E-2,-1.562356949E-1
1.939592734E1,-4.359636083E-2,-4.081946611E-2,-9.181880951E-2
1.941188803E1,-3.733661398E-2,-3.624135256E-2,1.642103195E-1
1.942787924E1,-5.673941970E-2,-3.327256441E-2,3.553733826E-1
1.944387045E1,-3.391072899E-2,-1.828533411E-2,2.420825958E-1
1.945986166E1,5.214501172E-3,-2.384626865E-2,-1.946086884E-1
1.947585287E1,9.064458311E-3,-2.178072929E-3,-3.532476425E-1
1.949178305E1,-8.836685866E-2,8.136034012E-5,-3.974056244E-2
1.950774374E1,-7.399666309E-2,6.270945072E-3,-1.114950180E-1
1.952370444E1,4.938688129E-2,5.486211181E-2,2.262573242E-1
1.953972616E1,9.615280479E-2,-2.655154467E-2,4.799222946E-1
1.955571738E1,4.302238673E-2,-6.244382262E-2,-1.630115509E-2
1.957167807E1,-7.288625836E-2,-8.803036809E-2,-4.981060028E-1
1.958766928E1,-8.155233413E-2,-2.703943849E-2,-2.538356781E-1
1.960366049E1,-6.144730002E-2,4.822582006E-2,3.547153473E-1
1.961965170E1,-9.433982894E-3,1.011271775E-1,5.606269836E-1
1.963564291E1,2.253857441E-2,8.895170689E-2,2.869529724E-1
1.965157309E1,-8.642187342E-3,2.964040637E-2,-1.283645630E-1
1.966753378E1,-4.953103513E-2,-4.253306985E-2,-3.590908051E-1
1.968343344E1,-7.684254646E-2,-7.587721944E-2,-2.804918289E-1
1.969942465E1,-6.653236598E-2,-7.817420363E-2,2.836513519E-2
1.971541586E1,-3.976231813E-2,-7.262825966E-2,2.726068497E-1
1.973137655E1,-1.864890195E-2,-4.400259256E-2,2.197237015E-1
1.974736776E1,-1.219571009E-2,-3.993302584E-2,-1.534557343E-2
1.976329794E1,-1.054200344E-2,1.167744398E-3,-1.569862366E-1
1.977928915E1,-3.440020233E-2,3.968322277E-2,-1.308355331E-1
1.979524984E1,-1.849310659E-2,7.540446520E-2,-3.267860413E-2
1.981124106E1,-2.186523937E-2,8.129632473E-2,9.426212311E-2
1.982723227E1,-1.276143081E-2,6.045883894E-2,2.450275421E-1
1.984322348E1,-2.914711647E-2,-1.333421469E-2,1.896867752E-1
1.985921469E1,-3.661625832E-2,-7.146504521E-2,-8.844184875E-2
1.987514487E1,3.646691330E-3,-6.089174747E-2,-3.687973022E-1
1.989116659E1,-6.370683014E-2,-2.688381076E-2,-2.152347565E-2
1.990712729E1,-5.380553752E-2,-1.569926739E-3,1.941928864E-1
1.992305746E1,-2.379863709E-2,6.289467216E-2,2.589206696E-1
1.993898764E1,1.075716689E-3,4.760149121E-2,1.989326477E-1
1.995497885E1,1.239325944E-2,1.954096556E-2,-5.749893188E-2
1.997100058E1,-4.461746663E-3,-2.443763614E-2,-2.778902054E-1
1.998702231E1,-4.924606532E-2,-1.828208566E-2,-2.083129883E-1
2.000298300E1,-3.659310192E-2,-1.632574201E-2,1.949119568E-2
2.001891318E1,-3.549708426E-2,-1.139518619E-2,2.352600098E-1
2.003487387E1,-3.449853137E-2,-1.393139362E-2,3.286294937E-1
2.005089560E1,-1.305533573E-2,-1.532697678E-2,1.199970245E-1
2.006685629E1,-1.821580529E-2,-4.585444927E-3,-9.829235077E-2
2.008284750E1,-3.040109389E-2,9.613871574E-3,-2.995920181E-1
2.009877768E1,-6.396958604E-3,4.700773954E-2,-2.180433273E-1
2.011476889E1,-1.829987392E-3,9.005060792E-2,7.328176498E-1
2.013079062E1,-5.893596262E-2,1.619333029E-2,-2.509021759E-1
2.014675131E1,4.365228117E-3,1.413711905E-2,7.762250900E-1
2.016274252E1,-6.674544513E-2,-1.822814345E-2,-1.816911697E-1
2.017867270E1,1.273285784E-2,-6.710606813E-2,2.034626007E-1
2.019466391E1,1.284920238E-2,8.521139622E-3,-8.875751495E-2
2.021062460E1,-1.874691062E-2,-2.918279171E-2,-2.801818848E-1
2.022661581E1,-3.854389116E-2,2.052482963E-2,6.723022461E-2
2.024260702E1,-4.578459263E-2,5.592048168E-3,1.344318390E-1
2.025859823E1,-2.872178890E-2,1.834928989E-4,1.200437546E-1
2.027458944E1,-4.292503372E-2,-4.482799768E-2,5.044460297E-2
2.029051962E1,-7.023861632E-3,-2.156907320E-2,2.150344849E-2
2.030648031E1,-2.420665137E-2,2.745449543E-3,-1.457881927E-2
2.032250204E1,-1.535701007E-2,3.177773952E-2,-2.686500549E-3
2.033849325E1,-3.231462091E-2,3.967106342E-2,2.367687225E-2
2.035448447E1,-3.723216802E-2,4.650655389E-2,2.375221252E-2
2.037041464E1,-3.929214552E-2,2.069205046E-2,1.428699493E-2
2.038640585E1,-3.379274905E-2,1.446881890E-2,-4.737854004E-3
2.040239706E1,-1.124713384E-2,-2.223461866E-2,-5.964756012E-2
2.041838827E1,-1.153644174E-3,1.117944717E-3,-4.416465759E-3
2.043437948E1,-6.223954260E-4,-7.567822933E-3,9.387683868E-2
2.045030966E1,-2.853520401E-2,-3.695732355E-2,1.752548218E-1
2.046627035E1,-3.519199789E-2,3.224343061E-3,1.535015106E-1
2.048220053E1,-4.762995616E-2,-1.006701589E-2,2.628040314E-2
2.049822226E1,-3.199033812E-2,1.356086135E-2,-1.392049789E-1
2.051421347E1,-1.352400891E-2,4.061838984E-2,-1.608171463E-1
2.053014364E1,-6.548412144E-2,3.935563564E-2,-5.294513702E-2
2.054610434E1,-2.792059071E-2,3.501439095E-2,1.363983154E-1
2.056212607E1,-1.347704232E-2,2.219325304E-2,1.795597076E-1
2.057811728E1,-3.511772305E-2,-1.640146971E-2,6.214904785E-2
2.059410849E1,-2.018342726E-2,-4.446065426E-2,-1.486949921E-1
2.061003866E1,1.037562452E-2,-2.846071124E-2,-1.870317459E-1
2.062602988E1,-2.093539201E-2,7.885217667E-3,1.386861801E-1
2.064202109E1,-3.536401689E-2,3.813406825E-2,3.469476700E-1
2.065801230E1,-6.531949341E-2,4.295969009E-2,1.766023636E-1
2.067400351E1,-9.432354942E-3,2.999061346E-2,-1.782112122E-1
2.068990317E1,-4.223864526E-2,1.060098410E-3,-1.593198776E-1
2.070589438E1,-6.274446845E-2,1.422923803E-2,-2.670202255E-1
2.072188559E1,5.173102021E-2,3.490191698E-2,-1.044559479E-2
2.073787680E1,4.807746410E-2,-1.022568345E-2,4.975776672E-1
2.075386801E1,2.972497977E-2,-4.783701897E-2,1.816482544E-1
2.076979819E1,-2.817355469E-2,-5.251017213E-2,-4.241790771E-1
2.078578940E1,-7.621948421E-2,-4.322230816E-2,-3.640623093E-1
2.080178061E1,-9.041130543E-2,5.089458823E-2,2.087459564E-1
2.081777182E1,-4.839638621E-2,1.090677083E-1,6.832132339E-1
2.083376303E1,1.736541092E-2,8.668941259E-2,5.512018204E-1
2.084972372E1,1.011971384E-2,5.584332347E-2,-7.726287842E-2
2.086568442E1,-3.082423471E-2,7.408857346E-3,-5.659589767E-1
2.088170614E1,-1.016291529E-1,-3.705799580E-2,-5.205173492E-1
2.089769736E1,-7.153920829E-2,-5.546995997E-2,-6.036663055E-2
2.091368857E1,-3.024548665E-2,-5.765578151E-2,3.424072266E-1
2.092964926E1,1.774899475E-2,-4.579186440E-2,4.359626770E-1
2.094560995E1,-8.311314508E-3,-4.770496488E-2,2.392892838E-1
2.096157065E1,-5.564281344E-2,-1.654511690E-2,-9.882354736E-2
2.097753134E1,-2.926244400E-2,5.691480637E-2,-3.170681000E-1
2.099349203E1,-2.510671876E-2,1.118638963E-1,-2.189102173E-1
2.100951376E1,-7.507918403E-3,1.157331914E-1,7.101345062E-2
2.102547446E1,1.607893035E-3,9.885779023E-2,3.082132339E-1
2.104143515E1,-1.983441412E-2,1.107999682E-2,3.990478516E-1
2.105736532E1,-6.888508797E-2,-7.240265608E-2,6.823158264E-2
2.107332602E1,1.714408025E-2,-9.536120296E-2,-4.492921829E-1
2.108934775E1,-6.231274456E-4,-3.681212664E-2,-3.678493500E-1
2.110536947E1,-4.059861600E-2,1.105290651E-2,3.239536285E-2
2.112133017E1,-6.178721786E-2,1.083739698E-1,4.230470657E-1
2.113726034E1,-6.137558818E-2,3.579100966E-2,-1.203756332E-1
2.115322104E1,8.068487048E-3,4.643461108E-2,4.924058914E-1
2.116924276E1,-1.376406476E-2,-3.289973736E-2,-5.160779953E-1
2.118523398E1,2.183718607E-3,-6.441900134E-2,1.589078903E-1
2.120122519E1,-5.599546432E-2,-1.688247919E-2,-4.419631958E-1
2.121721640E1,-5.423706025E-2,4.460018873E-2,-1.017608643E-1
2.123317709E1,-3.229551762E-2,4.848715663E-2,9.478664398E-2
2.124916830E1,-4.696825892E-2,3.894862533E-2,2.193708420E-1
2.126515951E1,-2.043991163E-2,2.100169659E-3,1.593971252E-1
2.128112021E1,-2.444130741E-2,-1.583284140E-2,-2.276897430E-2
2.129705038E1,-2.343901806E-2,3.764361143E-3,-1.641750336E-1
2.131301108E1,-1.142932102E-2,7.345050573E-3,-1.449804306E-1
2.132903280E1,-2.106398903E-2,5.339467525E-2,4.674148560E-2
2.134499350E1,-1.799269207E-2,3.171682358E-2,2.001371384E-1
2.136098471E1,-3.613527119E-2,2.967625856E-3,1.498603821E-1
2.137694540E1,-2.411265671E-2,-1.796814799E-2,3.479099274E-2
2.139290610E1,-2.666536719E-3,-5.451679230E-3,-6.112480164E-2
2.140880575E1,-1.235046983E-2,2.925813198E-3,-6.356048584E-2
2.142479697E1,-7.141299546E-3,2.438485622E-3,1.072692871E-2
2.144081869E1,-3.320322931E-2,3.485432267E-2,4.677009583E-2
2.145680990E1,-4.501847923E-2,2.154439688E-2,3.013229370E-2
2.147277060E1,-3.298088908E-2,1.421886683E-2,6.851959229E-2
2.148873129E1,-2.535028197E-2,-1.188626885E-2,8.050060272E-2
2.150469198E1,-1.794306003E-2,-1.614719629E-2,2.776241302E-2
2.152071371E1,-2.280946076E-2,1.726451516E-2,-2.021121979E-2
2.153667441E1,-2.782156691E-2,2.444073558E-2,2.280044556E-2
2.155263510E1,-4.973784834E-2,3.921511769E-2,6.103706360E-2
2.156865683E1,-4.937826842E-2,1.757878065E-2,7.052898407E-2
2.158464804E1,-4.346471280E-2,1.036900282E-2,-1.378059387E-3
2.160063925E1,-9.257532656E-3,2.863153815E-2,-6.126022339E-2
2.161656943E1,1.215280220E-2,5.933314562E-3,-1.363754272E-3
2.163253012E1,-2.173319273E-2,-3.768444061E-3,2.744388580E-2
2.164855185E1,-5.033377558E-2,-4.609882832E-3,7.059383392E-2
2.166451254E1,-3.319821507E-2,-1.429677010E-2,6.340885162E-2
2.168050375E1,-3.546976298E-2,8.150011301E-3,5.138683319E-2
2.169646444E1,-1.819379628E-3,-1.383066177E-3,3.420829773E-3
2.171242514E1,1.264060289E-2,2.550426126E-2,-6.128501892E-2
2.172844687E1,-3.771826625E-3,3.462490439E-2,2.489280701E-2
2.174443808E1,-5.992627889E-2,1.024332643E-2,9.910297394E-2
2.176042929E1,-7.486692071E-2,1.525303721E-2,1.181879044E-1
2.177632895E1,-6.153174862E-2,-3.505647182E-4,-1.600456238E-2
2.179232016E1,-1.609555632E-2,-1.180854440E-2,-1.836614609E-1
2.180831137E1,1.459051110E-2,2.282938361E-2,-1.548147202E-1
2.182427206E1,7.877839729E-3,5.803644657E-3,1.638507843E-1
2.184029379E1,-4.144892842E-2,1.986116171E-2,3.961629868E-1
2.185628500E1,-8.073374629E-2,1.365414262E-2,1.540527344E-1
2.187224570E1,-2.551523224E-2,-3.284692764E-3,-1.599979401E-1
2.188826742E1,-4.692994431E-2,1.522183418E-3,-1.937532425E-1
2.190422812E1,-7.740145922E-2,1.108679175E-2,-2.679033279E-1
2.192024984E1,5.114684254E-2,3.466951847E-2,-4.246616364E-2
2.193621054E1,5.108395964E-2,3.269010782E-2,4.607410431E-1
2.195217123E1,5.324160308E-2,-1.083734632E-2,3.339080811E-1
2.196819296E1,-3.572023287E-2,-5.860260129E-2,-2.625045776E-1
2.198418417E1,-6.055813283E-2,-5.555176735E-2,-5.283155441E-1
2.200017538E1,-6.136173382E-2,2.195298672E-2,-2.994441986E-2
2.201610556E1,-2.817359939E-2,8.957815170E-2,5.355396271E-1
2.203209677E1,-7.349353284E-3,1.077742577E-1,6.528100967E-1
2.204811850E1,-1.983229071E-3,8.253490925E-2,1.661415100E-1
2.206410971E1,-9.055895731E-3,3.177711368E-2,-4.594764709E-1
2.208010092E1,-7.581678033E-2,-7.900238037E-3,-6.417102814E-1
2.209603110E1,-9.349324554E-2,-4.050841928E-2,-2.559928894E-1
2.211199179E1,-8.609350771E-3,-1.681976020E-1,-3.775730133E-1
2.212801352E1,-4.323849455E-3,-2.129042149E-2,3.912420273E-1
2.214400473E1,4.448180646E-2,-1.060515046E-1,4.700574875E-1
2.215999594E1,-1.111464016E-2,5.276262760E-3,2.038660049E-1
2.217592612E1,-3.828925639E-2,2.556663752E-2,-6.152219772E-1
2.219188681E1,9.644569829E-3,1.049398333E-1,1.462211609E-1
2.220790854E1,-3.425835818E-2,1.478261501E-1,-2.580928802E-1
2.222393026E1,-1.043052971E-2,9.547249973E-2,3.143758774E-1
2.223992148E1,2.572542056E-3,2.726757526E-2,3.215227127E-1
2.225585165E1,-3.405991197E-2,-5.162686110E-2,3.877162933E-2
2.227181234E1,1.555612590E-2,-8.920222521E-2,-4.330959320E-1
2.228783407E1,1.388768665E-2,-4.979634285E-2,-2.462339401E-1
2.230382529E1,-7.104348391E-2,-7.318437099E-3,1.993856430E-1
2.231975546E1,-5.162761360E-2,7.655102015E-2,3.288354874E-1
2.233574667E1,-3.062440455E-2,6.604295969E-2,2.545013428E-1
2.235167685E1,1.150120422E-2,1.412948966E-2,1.957702637E-2
2.236769858E1,7.669007406E-3,2.147197723E-3,-2.152900696E-1
2.238372030E1,-3.139340132E-2,-2.228078246E-2,-1.602420807E-1
2.239971152E1,-6.564849615E-2,-3.127425909E-3,-2.585411072E-2
2.241564169E1,-5.257967487E-2,2.675265074E-3,9.876155853E-2
2.243160238E1,-2.930942550E-2,1.655116677E-2,1.180629730E-1
2.244762411E1,-1.928116381E-2,2.334031463E-2,8.213806152E-2
2.246361532E1,-3.905889764E-2,7.675141096E-3,6.046581268E-2
2.247960654E1,-2.251425758E-2,1.462531090E-2,5.311775208E-2
2.249559775E1,-2.731728554E-2,2.431538701E-2,2.687454224E-3
2.251152792E1,-2.258094028E-2,3.211024404E-2,-8.595371246E-2
2.252754965E1,1.112207770E-3,3.500598669E-2,-1.313524246E-1
2.254354086E1,-1.722700149E-2,4.145279527E-2,5.330085754E-3
2.255953207E1,-2.008261904E-2,1.893594861E-2,1.491937637E-1
2.257546225E1,-3.976830095E-2,3.660082817E-3,1.875581741E-1
2.259145346E1,-3.456925601E-2,9.558856487E-3,9.885215759E-2
2.260747519E1,-1.627733931E-2,-5.573034286E-3,-3.541088104E-2
2.262343588E1,8.919693530E-3,-1.086667180E-2,-1.097288132E-1
2.263939657E1,1.114578173E-2,9.568870068E-3,-7.138061523E-2
2.265532675E1,-3.872819617E-2,3.033185005E-2,5.564498901E-2
2.267125693E1,-4.768999293E-2,2.620372176E-2,1.299676895E-1
2.268727865E1,-3.945130110E-2,2.413755655E-2,5.336856842E-2
2.270323935E1,-3.641737998E-2,2.023893595E-2,-3.047657013E-2
2.271926108E1,-7.429804653E-3,2.816349268E-3,-1.613235474E-2
2.273519125E1,6.401829422E-3,1.250392199E-2,1.978302002E-2
2.275115194E1,-3.937087208E-2,1.726871729E-2,8.203029633E-2
2.276717367E1,-3.424490988E-2,1.434460282E-2,6.046676636E-2
2.278316488E1,-2.196067572E-2,2.789044380E-2,-1.138591766E-2
2.279915610E1,-3.836760670E-2,2.916905284E-2,-4.972839355E-2
2.281508627E1,-2.416322753E-2,1.249229908E-2,4.364776611E-2
2.283104697E1,-1.883964613E-2,9.126394987E-3,1.322031021E-1
2.284706869E1,-2.097732946E-2,-3.397017717E-3,9.619522095E-2
2.286302939E1,-2.328450978E-2,1.643580198E-2,-1.646423340E-2
2.287905112E1,-3.220137209E-2,1.885864139E-2,-4.766082764E-2
2.289501181E1,-3.179178387E-2,3.095388412E-3,-1.410961151E-2
2.291097250E1,-3.835677356E-2,2.679023147E-2,8.412456512E-2
2.292693320E1,-2.002256364E-2,2.067571878E-2,1.033191681E-1
2.294289389E1,-4.455425218E-2,8.257329464E-3,-3.315734863E-2
2.295891562E1,1.064229757E-3,1.119449735E-2,-1.576375961E-1
2.297487631E1,-4.344969988E-3,9.974867105E-3,-5.218029022E-2
2.299083700E1,-2.382382751E-2,1.187613606E-2,2.352638245E-1
2.300682822E1,-4.744713381E-2,4.904031754E-3,3.142023087E-1
2.302281943E1,-6.031604111E-2,1.252052188E-2,-2.367973328E-2
2.303884115E1,-8.542165160E-3,2.075016499E-2,-2.106981277E-1
2.305480185E1,-5.050421879E-2,2.259993553E-2,-1.412897110E-1
2.307076254E1,-3.658349812E-2,2.474078536E-2,-1.985359192E-1
2.308672323E1,6.912098825E-2,4.909926653E-2,1.562175751E-1
2.310268393E1,6.009617448E-2,-1.511624455E-2,4.413824081E-1
2.311870566E1,5.315186828E-2,-2.590051293E-2,6.016550064E-1
2.313469687E1,-5.975095183E-2,-3.814002872E-2,-6.723241806E-1
2.315065756E1,-6.941886246E-2,-5.367326736E-2,-1.000623703E-1
2.316667929E1,-9.417164326E-2,7.319861650E-2,4.485416412E-1
2.318267050E1,-4.419883341E-2,6.575152278E-2,4.941825867E-1
2.319866171E1,-4.428640008E-3,1.167692989E-1,6.829357147E-1
2.321456137E1,5.742197856E-3,8.893299103E-2,-6.718635559E-2
2.323049155E1,-2.161332220E-2,3.576159477E-2,-6.351280212E-1
2.324651327E1,-9.750631452E-2,-1.880526543E-2,-5.800533295E-1
2.326250448E1,-7.433678210E-2,-4.884624481E-2,-6.956005096E-2
2.327846518E1,-2.541165054E-2,-7.961961627E-2,4.362373352E-1
2.329439535E1,9.226664901E-3,-8.569416404E-2,4.939765930E-1
2.331035605E1,6.782019511E-3,-7.745277882E-2,2.112655640E-1
2.332637778E1,-3.592275083E-3,-1.610490680E-2,-1.529855728E-1
2.334233847E1,4.545126110E-3,8.287300169E-2,-2.872581482E-1
2.335836020E1,2.399478108E-3,1.316603571E-1,-1.387882233E-1
2.337432089E1,-2.416825667E-2,1.306134462E-1,1.031522751E-1
2.339031210E1,-3.784056380E-2,1.035119742E-1,2.658720016E-1
2.340624228E1,-1.190477237E-2,2.649399638E-2,2.347326279E-1
2.342223349E1,-1.569482684E-2,-4.285281897E-2,-5.032920837E-2
2.343825522E1,4.699255899E-2,-6.639027596E-2,-4.382495880E-1
2.345421591E1,-4.554796964E-3,-6.434744596E-2,-8.608436584E-2
2.347020712E1,-3.468327969E-2,-9.550482035E-3,2.853164673E-1
2.348610678E1,-2.793066949E-2,4.918769002E-2,3.547868729E-1
2.350209799E1,-2.938995510E-2,3.419238329E-2,2.036972046E-1
2.351808920E1,-9.321801364E-3,-3.922402859E-3,-9.834480286E-2
2.353408041E1,-3.560747951E-3,-8.372306824E-3,-2.972736359E-1
2.355007162E1,-1.595026255E-2,-1.084092259E-2,-1.798906326E-1
2.356606283E1,-2.915796265E-2,7.594287395E-3,3.825473785E-2
2.358205405E1,-2.962768450E-2,1.854693890E-2,1.702127457E-1
2.359807577E1,-5.536838248E-2,2.065420151E-3,1.894540787E-1
2.361406698E1,-4.575245082E-2,-1.487633586E-2,7.205486298E-2
2.363005820E1,-9.842775762E-3,-1.708140969E-2,-4.779911041E-2
2.364607992E1,1.884545386E-2,6.064385176E-3,-1.198577881E-2
2.366204062E1,-2.586152405E-3,3.120189905E-2,2.342224121E-3
2.367806234E1,-4.775002599E-4,3.893205523E-2,1.672458649E-2
2.369402304E1,-3.379470110E-2,3.601056337E-2,1.917743683E-2
2.371001425E1,-3.852776811E-2,1.402732730E-2,3.839111328E-2
2.372603598E1,-2.157497033E-2,3.119349480E-3,6.236743927E-2
2.374202719E1,-1.345322654E-2,-1.620829105E-3,8.392143250E-2
2.375798788E1,6.693780422E-3,-7.310688496E-3,1.001358032E-4
2.377391806E1,-1.951544359E-2,-4.911661148E-3,-8.609008789E-2
2.378990927E1,-8.190330118E-3,-1.697242260E-4,-5.728912354E-2
2.380593100E1,-2.277226374E-2,-3.555864096E-3,5.296325684E-2
2.382195273E1,-3.709547967E-2,-3.631770611E-3,1.248645782E-1
2.383794394E1,-2.250603959E-2,-4.632771015E-4,1.272077560E-1
2.385387411E1,-2.010364085E-2,2.154251933E-2,7.918643951E-2
2.386983481E1,-1.794244349E-2,2.205440402E-2,-5.262947083E-2
2.388585654E1,-1.129234955E-2,1.920044422E-2,-1.196842194E-1
2.390184775E1,-2.833544463E-2,2.123582363E-2,-3.335571289E-2
2.391780844E1,-3.486799449E-2,1.826828718E-2,7.459640503E-2
2.393373862E1,-3.609677404E-2,2.563342452E-2,6.997489929E-2
2.394966879E1,-1.140349358E-2,-1.496154070E-2,1.259994507E-2
2.396569052E1,-1.606016234E-2,-7.119446993E-3,1.022720337E-2
2.398168173E1,-8.974589407E-3,-2.305039763E-2,1.155204773E-1
2.399767294E1,-2.833441645E-2,-8.305907249E-4,1.058864594E-1
2.401357260E1,-2.395012230E-2,1.660844684E-2,3.153133392E-2
2.402953329E1,-3.167876601E-2,3.030055761E-2,-7.631015778E-2
2.404549399E1,-1.758181676E-2,3.990381956E-2,-7.391643524E-2
2.406145468E1,-3.852868453E-2,2.350175381E-2,1.715469360E-2
2.407747641E1,-1.075058430E-2,2.629774809E-2,7.710742950E-2
2.409343710E1,-1.808810979E-3,1.049697399E-3,4.123878479E-2
2.410939780E1,-3.974650428E-2,-1.322689652E-2,-4.016017914E-2
2.412541952E1,4.420876503E-3,1.825970411E-2,4.386863708E-1
2.414141073E1,-1.488532498E-2,3.325533867E-2,-2.173061371E-1
2.415740194E1,-1.402949169E-2,-7.485628128E-3,6.253776550E-1
2.417336264E1,-7.461669296E-2,3.836840391E-2,-3.253421783E-1
2.418932333E1,-2.380565926E-2,-1.619595289E-2,-3.135900497E-1
2.420534506E1,-4.933423549E-2,4.273045063E-2,2.635097504E-2
2.422133627E1,-6.747284532E-2,5.733311176E-3,-4.536628723E-2
2.423729697E1,3.657874838E-2,6.254911423E-3,-7.384777069E-2
2.425328818E1,7.169459015E-2,-4.353076220E-3,3.214817047E-1
2.426924887E1,5.932983756E-2,-3.670561314E-2,2.305278778E-1
2.428524008E1,-2.784972265E-2,-4.579904675E-2,-1.623640060E-1
2.430120077E1,-8.263520896E-2,-2.511698008E-2,-3.923110962E-1
2.431716147E1,-8.685787022E-2,4.038810730E-2,2.209091187E-2
2.433318320E1,-6.335207820E-2,1.031146497E-1,4.293670654E-1
2.434911337E1,2.784453332E-3,1.295308918E-1,5.034961700E-1
2.436513510E1,1.685101539E-3,8.999870718E-2,1.630744934E-1
2.438112631E1,-5.953691900E-3,3.418204188E-2,-3.856697083E-1
2.439708700E1,-6.857834756E-2,-8.236199617E-3,-5.055046082E-1
2.441307822E1,-8.141119778E-2,-5.872341990E-2,-1.867942810E-1
2.442903891E1,-4.516287148E-2,-7.032209635E-2,2.661771774E-1
2.444503012E1,-3.451704606E-2,-8.140650392E-2,4.891061783E-1
2.446102133E1,8.624451235E-3,-8.693951368E-2,2.255620956E-1
2.447701254E1,8.066220209E-3,-1.943847537E-2,-1.626691818E-1
2.449300375E1,-3.275136650E-2,5.920857191E-2,-2.778263092E-1
2.450893393E1,-1.022044942E-2,1.226378083E-1,-1.317405701E-1
2.452495566E1,1.788374968E-2,1.284415722E-1,1.150503159E-1
2.454091635E1,5.196258426E-4,1.034414172E-1,2.516460419E-1
2.455687704E1,-9.855281562E-3,2.221113443E-2,2.180528641E-1
2.457286825E1,-6.023574993E-2,-5.787664652E-2,2.632427216E-2
2.458882895E1,-2.147958800E-2,-8.614742756E-2,-2.419586182E-1
2.460482016E1,3.656176478E-2,-3.361976147E-2,-3.520107269E-1
2.462081137E1,-5.120930448E-2,2.763301134E-3,9.362888336E-2
2.463680258E1,-3.522000462E-2,4.584988952E-2,3.476409912E-1
2.465279379E1,-2.748775482E-2,4.140391946E-2,2.805299759E-1
2.466875448E1,-2.923924476E-3,1.244443655E-2,5.036735535E-2
2.468474570E1,-1.623579487E-2,-2.120226622E-2,-1.654157639E-1
2.470073691E1,-4.895217717E-3,-1.222684979E-2,-2.038154602E-1
2.471666708E1,-3.006433696E-2,1.161050797E-2,-1.198720932E-1
2.473259726E1,-3.527891263E-2,2.011021972E-2,8.151054382E-2
2.474855795E1,-3.870049119E-2,2.634832263E-2,1.822710037E-1
2.476457968E1,-3.825414926E-2,7.886469364E-3,1.511707306E-1
2.478057089E1,-2.417576686E-2,-5.718290806E-3,2.599716187E-3
2.479656210E1,-2.449377626E-2,2.067565918E-3,-1.668643951E-2
2.481252280E1,-1.739992946E-2,-7.286906242E-3,-1.675415039E-2
2.482848349E1,-3.455417976E-2,3.141418099E-2,-7.166862488E-3
2.484450522E1,-2.278085425E-2,2.864280343E-2,-7.104873657E-3
2.486049643E1,3.034608997E-2,3.881543875E-2,1.214599609E-2
2.487645712E1,-1.904314384E-2,7.640689611E-3,7.207775116E-2
2.489238730E1,-8.356437087E-3,-1.797884703E-3,8.405780792E-2
2.490834799E1,-4.878540337E-2,-1.279354095E-3,4.808616638E-2
2.492436972E1,-4.417336360E-2,-9.752124548E-3,-1.420402527E-2
2.494039145E1,-1.669036597E-2,1.191502810E-2,-1.667594910E-2
2.495635214E1,-7.236931473E-3,2.155378461E-2,1.684474945E-2
2.497228232E1,-1.729972661E-3,1.465439796E-2,4.798126221E-2
2.498824301E1,-2.058711648E-2,1.946789026E-2,3.361797333E-2
2.500426474E1,-2.801150456E-2,1.617532969E-2,2.401256561E-2
2.502025595E1,-1.360882074E-2,-3.506153822E-3,9.631156921E-3
2.503624716E1,-2.536573261E-2,1.439660788E-3,1.203155518E-2
2.505217734E1,-5.387933925E-2,1.435336471E-2,8.964538574E-5
2.506813803E1,-3.027372062E-3,1.836690307E-2,1.929664612E-2
2.508415976E1,1.899250969E-2,2.974352241E-2,2.893257141E-2
2.510018149E1,-1.393980160E-2,1.881498098E-2,5.290985107E-2
2.511611166E1,-5.688958988E-2,-4.364153743E-2,2.252864838E-1
2.513204184E1,-4.254699871E-2,1.485869288E-2,4.622697830E-1
2.514797201E1,-4.004004225E-2,-2.707660198E-2,-4.068632126E-1
2.516399374E1,2.037739754E-2,-2.483403683E-2,3.808269501E-1
2.517998495E1,-1.522343233E-2,2.626764774E-2,-4.235982895E-1
2.519597616E1,-7.958866656E-3,1.866653562E-2,-6.944656372E-3
2.521196738E1,-5.780597031E-2,2.263262868E-2,-5.024919510E-1
2.522795859E1,-4.512297362E-2,4.363119602E-3,6.257057190E-2
2.524394980E1,-3.939871863E-2,-1.261684299E-2,6.735706329E-2
2.525991049E1,-2.375157923E-2,-8.521467447E-3,4.579448700E-2
2.527587118E1,-2.466234192E-2,-1.584303379E-2,-4.518413544E-2
2.529183188E1,-1.933494210E-2,2.428051829E-2,-1.408910751E-1
2.530782309E1,-3.351408988E-3,1.670789719E-2,-8.808040619E-2
2.532381430E1,-4.070878029E-3,3.082680702E-2,1.419086456E-1
2.533974447E1,-4.010978341E-2,2.553400397E-2,3.549747467E-1
2.535567465E1,-6.273577362E-2,1.923450828E-2,2.253999710E-1
2.537160483E1,-1.909494027E-2,1.073405147E-2,-1.006355286E-1
2.538753500E1,-1.090620086E-2,3.665673733E-2,-2.229776382E-1
2.540355673E1,-7.458171248E-2,2.689942718E-2,-2.157335281E-1
2.541957846E1,4.244204611E-3,4.593867064E-2,-2.632541656E-1
2.543553915E1,9.134028852E-2,5.037954450E-2,2.568187714E-1
2.545146933E1,6.039407104E-2,-4.032537341E-2,4.773244858E-1
2.546743002E1,9.680803865E-3,-6.867903471E-2,1.035814285E-1
2.548345175E1,-8.831776679E-2,-8.802172542E-2,-3.469314575E-1
2.549944296E1,-1.013217866E-1,-3.336119652E-2,-1.124496460E-1
2.551543417E1,-7.044769824E-2,7.938818634E-2,3.089456558E-1
2.553139487E1,-2.038989216E-3,1.325884908E-1,4.428749084E-1
2.554735556E1,8.246548474E-3,1.442845166E-1,1.647634506E-1
2.556337729E1,1.706266776E-3,1.146834493E-1,-2.762145996E-1
2.557936850E1,-5.381035060E-2,1.370859146E-2,-4.128961563E-1
2.559535971E1,-9.255287051E-2,-8.446794748E-2,-2.284135818E-1
2.561132040E1,-7.550550252E-2,-8.803072572E-2,8.792877197E-2
2.562728110E1,-2.650789917E-2,-1.016554236E-1,3.060359955E-1
2.564330282E1,9.016096592E-4,-8.516934514E-2,2.987794876E-1
2.565929404E1,-3.273222595E-3,-5.899018049E-2,1.092891693E-1
2.567528525E1,3.543546423E-3,3.040669858E-2,-9.226131439E-2
2.569124594E1,-9.349007159E-3,9.198997915E-2,-1.835708618E-1
2.570723715E1,2.524329349E-3,1.315046549E-1,-9.992408752E-2
2.572316733E1,-2.079373598E-2,1.329297125E-1,6.764984131E-2
2.573915854E1,-1.350279152E-2,9.800918400E-2,2.376022339E-1
2.575505820E1,-4.241829365E-2,2.748690546E-2,2.182998657E-1
2.577101889E1,-4.300657660E-2,-3.215120733E-2,-1.655292511E-2
2.578697958E1,9.497962892E-3,-5.909943581E-2,-3.136005402E-1
2.580300131E1,-1.341014355E-2,-3.544493020E-2,-2.010765076E-1
2.581896200E1,-4.997758940E-2,-1.495958865E-2,1.677103043E-1
2.583489218E1,-3.453533351E-2,1.138646901E-2,2.850227356E-1
2.585082236E1,-1.933299564E-2,2.634675801E-2,2.034177780E-1
2.586681357E1,9.826987982E-3,5.077362061E-3,2.834415436E-2
2.588283530E1,-1.651780866E-2,-3.456965089E-3,-1.802158356E-1
2.589882651E1,-2.030933276E-2,1.588061452E-2,-1.827430725E-1
2.591478720E1,-6.362461299E-2,1.778025925E-2,-3.670597076E-2
2.593071738E1,-5.599440262E-2,1.903814077E-2,7.105827332E-2
2.594667807E1,-2.867959253E-2,3.063063323E-2,1.045722961E-1
2.596269980E1,-6.520990282E-3,1.953771710E-2,4.943656921E-2
2.597869101E1,-2.082994580E-2,5.781218410E-3,-5.743980408E-3
2.599468222E1,-1.911708899E-2,6.926506758E-4,3.962135315E-2
2.601064291E1,-4.106410593E-2,1.375864446E-2,1.113119125E-1
2.602660361E1,-2.676124871E-2,2.351745218E-2,2.498149872E-2
2.604262533E1,-1.078925841E-2,3.228471428E-2,-7.568836212E-2
2.605858603E1,-1.132673584E-2,2.919300646E-2,-5.181980133E-2
2.607460776E1,-8.883846924E-3,3.272578865E-2,3.911304474E-2
2.609056845E1,-1.813962497E-2,1.401031762E-2,7.257843018E-2
2.610652914E1,-3.615783527E-3,5.022749305E-3,6.292343140E-2
2.612252035E1,-1.358644105E-2,-3.667759150E-2,2.064838409E-1
2.613848105E1,-4.294722900E-2,3.466871381E-2,-2.844076157E-1
2.615450278E1,-2.462841012E-2,-1.733345538E-2,-2.796831131E-1
2.617043295E1,-6.208002567E-3,3.843381256E-2,3.499326706E-1
2.618642416E1,-4.987690225E-2,3.761570901E-2,-2.822017670E-1
2.620235434E1,1.667026430E-2,2.190387994E-2,3.354377747E-1
2.621834555E1,-3.436844051E-2,3.891637176E-2,-8.838272095E-2
2.623433676E1,-1.054487750E-2,4.453949258E-2,-6.685829163E-2
2.625026694E1,-2.004956827E-2,9.981010109E-3,7.677459717E-2
2.626622763E1,-2.017080411E-2,3.942478448E-3,1.892719269E-1
2.628224936E1,-3.289490193E-2,5.486492068E-3,1.269769669E-1
2.629821005E1,-2.427443117E-2,-1.575026661E-2,-2.868461609E-2
2.631420126E1,-1.874586381E-2,1.330004074E-2,-1.316576004E-1
2.633010092E1,-2.537941188E-2,3.281931579E-2,-9.096431732E-2
2.634609213E1,-9.895105846E-3,4.255871847E-2,8.620262146E-2
2.636211386E1,-4.864751548E-2,3.549754620E-2,1.532363892E-1
2.637807455E1,-4.118957743E-2,2.414623648E-2,1.269006729E-1
2.639409628E1,-4.306957498E-2,1.506791636E-2,2.396202087E-2
2.641008749E1,-2.332456782E-2,2.342402935E-2,-1.910877228E-2
2.642607870E1,1.138151623E-2,5.730107427E-3,-1.148500443E-1
2.644197836E1,-5.254786462E-3,3.264715150E-2,-1.675062180E-1
2.645796957E1,-1.614545286E-2,2.872489393E-2,-3.342628479E-2
2.647399130E1,-1.505164709E-2,4.791238904E-2,2.131853104E-1
2.648998251E1,-3.689037636E-2,2.962504327E-2,3.903980255E-1
2.650594320E1,-5.432134122E-2,1.870796084E-2,2.061557770E-1
2.652187338E1,-4.160535708E-2,1.687341928E-2,-1.887178421E-1
2.653780356E1,-2.622582763E-2,2.172747999E-2,-3.011016846E-1
2.655379477E1,-3.523721546E-2,4.927286506E-2,-1.502304077E-1
2.656969443E1,9.849218652E-3,4.474127293E-2,-1.167411804E-1
2.658568564E1,9.157829732E-2,6.565215439E-2,1.992502213E-1
2.660161581E1,2.162231505E-2,9.119339287E-3,4.434986115E-1
2.661760702E1,-3.127340600E-2,-5.881373584E-2,3.905487061E-2
2.663362875E1,-3.768794239E-2,-3.264714777E-2,-4.108304977E-1
2.664961996E1,-3.277897462E-2,9.469792247E-3,-2.000236511E-1
2.666558066E1,-4.641228542E-2,6.156255305E-2,2.692480087E-1
2.668154135E1,-5.283147842E-2,1.218514591E-1,4.440917969E-1
2.669750204E1,-2.083461359E-2,1.340673864E-1,3.102455139E-1
2.671346274E1,3.161267843E-3,1.125897616E-1,-4.371261597E-2
2.672936239E1,-9.138421156E-3,4.095365107E-2,-3.090887070E-1
2.674535361E1,-7.086008787E-2,-2.434152365E-2,-3.256273270E-1
2.676125326E1,-6.818816066E-2,-5.669648945E-2,-9.575557709E-2
2.677724447E1,-2.846306562E-2,-3.693205118E-2,1.747770309E-1
2.679323569E1,-1.880982518E-2,-3.910563886E-2,2.586765289E-1
2.680922690E1,-1.826808043E-2,-3.936089575E-2,1.177005768E-1
2.682521811E1,-2.715584636E-2,9.980127215E-3,-3.275871277E-2
2.684117880E1,-2.672712505E-2,7.360982895E-2,-1.138238907E-1
2.685717001E1,9.318992496E-3,1.274393499E-1,-1.040191650E-1
2.687313070E1,-4.337189253E-3,1.375123858E-1,-5.738258362E-3
2.688915243E1,-7.573422045E-3,1.111790240E-1,1.883287430E-1
2.690514364E1,-6.954561174E-2,4.249981046E-2,2.652006149E-1
2.692107382E1,-5.173417926E-2,-1.227903366E-2,4.535675049E-2
2.693703451E1,-8.882861584E-4,-4.227945209E-2,-2.966003418E-1
2.695299521E1,1.144144312E-2,-4.710704088E-3,-2.916326523E-1
2.696898642E1,-3.612573072E-2,2.069815993E-2,3.872013092E-2
2.698494711E1,-1.149864122E-2,4.190438986E-2,2.733650208E-1
2.700093832E1,-2.473172173E-2,6.061753631E-2,2.544641495E-1
2.701692953E1,-1.723290980E-2,6.309551001E-2,9.214782715E-2
2.703292074E1,3.326051682E-2,3.805962205E-2,-8.446884155E-2
2.704882040E1,-1.815703698E-3,3.629010916E-2,-1.630563736E-1
2.706481161E1,-2.167402208E-2,1.904952526E-2,-1.077880859E-1
2.708071127E1,-2.197803557E-2,1.988077164E-2,8.380794525E-2
2.709670248E1,-4.135698080E-2,2.419072390E-2,1.916580200E-1
2.711269369E1,-7.218525559E-2,3.804004192E-2,-8.975915909E-1
2.712868490E1,-1.810357906E-3,4.988616705E-2,3.694171906E-1
2.714467612E1,-5.012113973E-2,7.507079840E-2,-4.300050735E-1
2.716066733E1,-1.770184189E-2,1.362100244E-2,3.027858734E-1
2.717662802E1,-1.942156255E-2,5.771717429E-2,1.497173309E-1
2.719255820E1,-4.113286734E-2,1.140892506E-3,-6.529045105E-2
2.720854941E1,-2.437345311E-2,4.902490973E-2,9.512138367E-2
2.722454062E1,-2.497090772E-2,3.769743443E-2,3.555011749E-2
2.724053183E1,5.900170654E-3,4.007712007E-2,4.304695129E-2
2.725649252E1,-1.103832200E-2,4.355207086E-2,4.821395874E-2
2.727245322E1,-2.530267090E-2,3.710651398E-2,7.912635803E-3
2.728838339E1,-5.991319194E-3,3.044900298E-2,-3.259277344E-2
2.730434408E1,-5.588917062E-3,2.220547199E-2,1.422882080E-3
2.732036581E1,-1.921935007E-2,4.779103398E-2,8.867263794E-3
2.733632651E1,1.688375510E-2,3.575247526E-2,-4.758834839E-4
2.735234823E1,7.094552740E-3,3.853216767E-2,-7.443428040E-3
2.736830893E1,-2.478933334E-2,2.667051554E-2,-7.211685181E-3
2.738430014E1,-1.643681526E-2,2.342718840E-2,3.856182098E-2
2.740023031E1,-5.609486997E-2,1.386651397E-2,3.892517090E-2
2.741622152E1,-2.408592403E-2,3.892022371E-2,2.738952637E-2
2.743224325E1,-6.321080029E-3,3.029382229E-2,-5.677223206E-3
2.744823447E1,-2.177575603E-3,4.872810841E-2,9.107589722E-3
2.746422568E1,-3.592165560E-2,3.518164158E-2,4.660606384E-3
2.748018637E1,-3.118693642E-2,5.418479443E-2,2.168750763E-2
2.749614706E1,-4.320315272E-2,4.529356956E-2,5.303573608E-2
2.751207724E1,-3.339142725E-2,3.684902191E-2,1.014041901E-2
2.752800741E1,-2.593340352E-2,3.162986040E-2,-5.674171448E-2
2.754396811E1,-9.882124141E-3,1.667553186E-2,-9.740829468E-2
2.755998984E1,-6.115557626E-3,1.908373833E-2,-5.444335938E-2
2.757598105E1,-9.011767805E-3,2.135694027E-2,1.585168839E-1
2.759197226E1,-2.647031844E-2,3.374952078E-2,2.496080399E-1
2.760790243E1,-4.207129776E-2,2.829444408E-2,9.203147888E-2
2.762386313E1,-4.391619563E-2,4.935753345E-2,-1.156892776E-1
2.763982382E1,-3.721752018E-2,5.257278681E-2,-1.416492462E-1
2.765581503E1,-4.470048100E-2,5.615842342E-2,-2.229719162E-1
2.767183676E1,3.255416453E-2,5.392795801E-2,-9.876155853E-2
2.768782797E1,6.151879579E-2,7.993942499E-2,3.750343323E-1
2.770381918E1,8.422788233E-3,2.093058825E-2,3.849849701E-1
2.771974936E1,-1.989034191E-2,-1.378101110E-2,-1.527938843E-1
2.773574057E1,-1.167112216E-2,-1.870721579E-2,-3.867073059E-1
2.775176230E1,-4.808294773E-2,1.787537336E-2,-8.253669739E-2
2.776769247E1,-5.594548583E-2,1.083632708E-1,3.098669052E-1
2.778365317E1,-2.626148425E-2,1.231586933E-1,4.271650314E-1
2.779955282E1,-1.119648665E-2,1.135560870E-1,2.193002701E-1
2.781554404E1,6.619255990E-3,5.267190933E-2,-1.272125244E-1
2.783156576E1,-2.052878588E-2,1.772189140E-2,-3.352670670E-1
2.784755697E1,-5.133621395E-2,-1.622676849E-2,-1.848411560E-1
2.786357870E1,-7.108337432E-2,-1.139926910E-2,1.853876114E-1
2.787950888E1,-4.695550725E-2,-2.135121822E-2,2.731418610E-1
2.789550009E1,3.183674067E-3,1.281815767E-2,7.649993896E-2
2.791152182E1,-4.348205402E-2,3.196626902E-2,-1.159896851E-1
2.792751303E1,-2.143534087E-2,4.404217005E-2,-1.456594467E-1
2.794350424E1,-2.046899684E-2,1.046807170E-1,-9.179306030E-2
2.795946493E1,1.390929148E-2,1.146811545E-1,-2.600574493E-2
2.797545614E1,-2.701733261E-3,1.086996198E-1,1.500558853E-1
2.799141684E1,-1.611501724E-2,4.091364145E-2,3.215875626E-1
2.800743857E1,-4.921643436E-2,1.005113125E-3,1.270809174E-1
2.802342978E1,-2.754032612E-2,-3.579184413E-2,-2.038173676E-1
2.803939047E1,1.745244116E-2,-2.294912934E-2,-3.313655853E-1
2.805535116E1,-2.905819565E-3,1.810342073E-3,-1.144409180E-2
2.807128134E1,-1.078082249E-2,4.362702370E-2,3.204870224E-1
2.808730307E1,-5.169697106E-4,4.383406043E-2,3.126859665E-1
2.810323324E1,4.032206163E-2,5.216565728E-2,2.261447906E-2
2.811925497E1,-1.391407102E-3,3.349924088E-2,-7.200021744E-1
2.813524618E1,9.668070823E-3,2.630594373E-2,2.059450150E-1
2.815120688E1,-4.465264454E-2,-3.234747052E-2,-4.364519119E-1
2.816713705E1,-1.160562783E-2,-3.896185756E-2,5.277347565E-1
2.818309775E1,-8.174678683E-2,-2.841828763E-2,-1.599102020E-1
2.819911947E1,-6.178747118E-2,-6.194680929E-2,1.055116653E-1
2.821511069E1,-3.764658049E-2,-1.280197501E-2,5.260086060E-2
2.823110190E1,-3.061577678E-2,-5.978405476E-3,-8.171558380E-2
2.824709311E1,-1.104743406E-2,4.218176007E-2,-5.805969238E-2
2.826305380E1,4.453662783E-3,5.977781117E-2,-1.288604736E-2
2.827904501E1,3.915607929E-3,5.476005375E-2,5.623817444E-2
2.829503622E1,-1.090573519E-2,2.530577779E-2,9.906768799E-2
2.831102743E1,-5.170841515E-2,6.931550801E-3,6.828308105E-4
2.832695761E1,-3.028368019E-2,-2.798345685E-2,-3.302764893E-2
2.834291830E1,1.256387867E-2,-3.848657385E-2,-2.121829987E-2
2.835894003E1,-2.815051004E-3,-5.772461370E-2,1.935291290E-2
2.837490072E1,-9.199222550E-3,-5.139986798E-2,6.475448608E-2
2.839089194E1,-6.045177579E-3,-3.984968737E-2,4.315662384E-2
2.840682211E1,1.118088141E-2,-2.052472904E-2,1.201152802E-2
2.842281332E1,-5.082635209E-3,-1.739960350E-2,9.101772308E-2
2.843877402E1,3.067323938E-3,-1.639431901E-2,8.863449097E-2
2.845476523E1,-2.191374451E-2,-3.622794524E-2,5.273723602E-2
2.847078696E1,-2.351709083E-2,-2.289641649E-2,-6.694793701E-2
2.848677817E1,-3.574457020E-2,4.467248917E-3,-7.648181915E-2
2.850276938E1,-5.319138989E-2,5.641028285E-3,7.202911377E-2
2.851873007E1,-2.859679610E-2,2.154228464E-2,1.798572540E-1
2.853469076E1,-2.355248295E-2,-4.589155316E-3,9.375667572E-2
2.855071249E1,1.768379286E-2,-2.556771040E-2,-1.144304276E-1
2.856670370E1,2.704629302E-2,-3.797802329E-2,-2.076330185E-1
2.858266440E1,-1.406525541E-2,-3.631219268E-2,-1.283655167E-1
2.859868612E1,-6.223419681E-2,-5.509990454E-2,6.588554382E-2
2.861467734E1,-7.783135027E-2,-5.476772785E-2,2.551870346E-1
2.863066855E1,-4.267934710E-2,-2.146077156E-2,2.674951553E-1
2.864662924E1,-1.557991933E-2,-2.737502754E-2,8.321285248E-2
2.866258993E1,-2.770759165E-3,-3.126598895E-2,-2.159967422E-1
2.867861166E1,-4.395709839E-3,-1.697464287E-2,-1.200399399E-1
2.869463339E1,-6.420868635E-2,2.471627295E-2,1.220989227E-1
2.871059408E1,-1.985553466E-2,6.858825684E-3,-1.987457275E-3
2.872652426E1,5.599693954E-2,-3.260374069E-4,-9.482479095E-2
2.874248495E1,6.392950565E-2,-3.472951055E-2,-8.215522766E-2
2.875847616E1,6.494958419E-3,-7.094541192E-2,-1.986141205E-1
2.877446738E1,-4.116083309E-2,-6.577280164E-2,-9.701156616E-2
2.879048910E1,-8.453138173E-2,-2.751672268E-2,3.614120483E-1
2.880648031E1,-5.709031969E-2,-1.416605711E-2,4.485082626E-1
2.882250204E1,-6.919841282E-3,1.496165991E-3,2.430553436E-1
2.883843222E1,4.909617081E-2,2.886834741E-2,-2.016639709E-2
2.885442343E1,3.161074966E-2,-9.486168623E-3,-2.594881058E-1
2.887044516E1,-7.401777431E-3,-3.338602185E-2,-2.328443527E-1
2.888643637E1,-7.551697642E-2,-5.524432659E-2,2.863121033E-2
2.890242758E1,-1.059206501E-1,-6.048837304E-2,1.536445618E-1
2.891838827E1,-4.661143571E-2,-5.894890428E-2,1.420707703E-1
2.893434897E1,-1.868319139E-2,-5.700156093E-2,-1.802921295E-2
2.895027914E1,-1.369151473E-2,-3.940933943E-2,-1.660919189E-1
2.896623984E1,-2.239742875E-2,-1.374956965E-2,-7.696247101E-2
2.898220053E1,-5.429276079E-2,3.456607461E-2,2.301111221E-1
2.899822226E1,-2.431669459E-2,3.791657090E-2,2.927770615E-1
2.901418295E1,-4.038312286E-2,-1.584452391E-2,8.063316345E-3
2.903017416E1,-3.740146756E-2,-1.529222727E-2,-1.903800964E-1
2.904610434E1,-6.395299733E-2,-5.004227161E-2,-1.132049561E-1
2.906206503E1,-2.356954664E-2,-6.459432840E-2,-2.624797821E-2
2.907805624E1,2.124851942E-2,-5.963772535E-2,-2.783012390E-2
2.909404745E1,2.923097461E-2,-5.088579655E-2,2.123651505E-1
2.911006918E1,-1.486819610E-2,-7.375258207E-2,3.373432159E-1
2.912606039E1,-5.575650930E-2,-7.909399271E-2,1.100006104E-1
2.914205160E1,-6.321553886E-2,-5.474925041E-3,2.082586288E-1
2.915795126E1,-5.370963365E-2,-3.355568647E-2,-3.612499237E-1
2.917394247E1,1.415332966E-2,1.688140631E-2,5.106782913E-1
2.918993368E1,-2.631239593E-3,2.871090174E-2,-3.268623352E-1
2.920592489E1,3.528162837E-2,5.239963531E-3,2.218828201E-1
2.922188559E1,-6.053160876E-3,-4.648613930E-2,-2.036304474E-1
2.923784628E1,-3.453726321E-2,-6.209880114E-2,-2.083492279E-2
2.925380697E1,-7.267239690E-2,-8.693498373E-2,1.474819183E-1
2.926973715E1,-6.388194859E-2,-5.539023876E-2,1.645860672E-1
2.928572836E1,-2.240834385E-2,-3.658324480E-2,1.023178101E-1
2.930171957E1,1.687742770E-3,-4.212927818E-2,7.098960876E-2
2.931768027E1,6.271060556E-3,-3.914785385E-2,-7.278156281E-2
2.933361044E1,-3.513399139E-2,-7.843494415E-3,-1.300783157E-1
2.934960165E1,-3.670963272E-2,4.106271267E-2,-1.055955887E-1
2.936559286E1,-2.325056493E-2,4.402238131E-2,-3.069591522E-2
2.938155356E1,-2.260501310E-2,1.676934958E-2,1.063613892E-1
2.939754477E1,-2.382520214E-2,-2.718943357E-2,3.077459335E-1
2.941350546E1,-4.971382767E-2,-1.161007285E-1,1.495580673E-1
2.942946615E1,-2.253167331E-2,-1.231030822E-1,-1.380548477E-1
2.944539633E1,-1.477282867E-2,-9.740948677E-2,-1.213474274E-1
2.946135702E1,-4.455489293E-2,-3.006726503E-2,-1.377677917E-1
2.947737875E1,-2.481677011E-2,5.688875914E-2,-2.230072021E-2
2.949340048E1,-3.779209405E-2,6.381624937E-2,1.122617722E-1
2.950936117E1,-2.193086967E-2,5.659282207E-3,1.661777496E-2
2.952529135E1,-2.356279641E-3,-2.528506517E-2,1.026592255E-1
2.954125204E1,-3.504757583E-2,-7.546347380E-2,2.817268372E-1
2.955727377E1,-6.216699257E-2,-5.358034372E-2,1.061429977E-1
2.957329550E1,-2.081105486E-2,-2.729469538E-2,-2.416696548E-1
2.958928671E1,-4.291136190E-2,7.195055485E-3,-1.819124222E-1
2.960518637E1,-5.945747718E-2,5.091047287E-2,-1.887340546E-1
2.962117758E1,6.283371150E-2,5.349177122E-2,-9.469032288E-2
2.963707724E1,6.127947569E-2,1.206159592E-3,5.762195587E-1
2.965306845E1,5.476112291E-2,-1.014226079E-1,4.394474030E-1
2.966905966E1,-7.265880704E-2,-1.465784311E-1,-1.959886551E-1
2.968505087E1,-8.834233135E-2,-1.000168920E-1,-4.789276123E-1
2.970104208E1,-5.610703304E-2,1.196664572E-2,-1.239795685E-1
2.971703329E1,-1.001782715E-2,1.220084429E-1,3.031587601E-1
2.973296347E1,-3.027267754E-3,1.370692849E-1,3.753499985E-1
2.974892416E1,3.603756428E-3,9.762787819E-2,-9.584426880E-4
2.976485434E1,-2.097883075E-2,4.171788692E-3,-3.392095566E-1
2.978081503E1,-5.399701372E-2,-9.704750776E-2,-1.935434341E-1
2.979674521E1,-7.291091233E-2,-1.475387812E-1,2.300491333E-1
2.981273642E1,-3.768372536E-2,-1.337873340E-1,4.092597961E-1
2.982875815E1,-1.067090780E-3,-9.330260754E-2,1.834173203E-1
2.984474936E1,2.112171054E-2,-1.975208521E-2,-1.980695724E-1
2.986074057E1,7.380064577E-3,5.442643166E-2,-3.252735138E-1
2.987664023E1,-3.552036732E-2,1.154747009E-1,-2.387104034E-1
2.989263144E1,-4.131634533E-2,1.052815318E-1,4.468631744E-2
2.990862265E1,-2.854612470E-2,4.571145773E-2,3.543462753E-1
2.992461386E1,-3.555951640E-2,-4.545772076E-2,4.504289627E-1
2.994060507E1,-2.222081274E-2,-9.654009342E-2,1.459980011E-1
2.995656576E1,1.867113262E-2,-9.378755093E-2,-2.854156494E-1
2.997252646E1,2.743816562E-2,-7.135772705E-2,-4.888744354E-1
2.998845663E1,3.525875509E-2,-1.157641411E-3,-3.395957947E-1
3.000441733E1,-4.664289206E-2,4.739588499E-2,4.420948029E-1
3.002034750E1,-7.934511453E-2,6.538325548E-2,7.681236267E-1
3.003636923E1,-6.578915566E-2,3.015297651E-2,3.699083328E-1
3.005232992E1,-1.470607705E-2,-2.289330959E-2,-4.069766998E-1
3.006835165E1,2.266342565E-2,-3.722620010E-2,-6.227760315E-1
3.008431234E1,-1.030319743E-2,5.434632301E-3,-5.697727203E-2
3.010030356E1,-2.061006986E-2,2.376610041E-2,4.780216217E-1
3.011632529E1,-4.857591167E-2,1.098638773E-2,-1.703577042E-1
3.013231650E1,-1.201160252E-3,-4.219746590E-2,6.646633148E-2
3.014827719E1,-9.495634586E-2,-3.849971294E-2,-4.461402893E-1
3.016420737E1,-8.082493395E-2,-7.586508989E-2,-1.900625229E-1
3.018016806E1,-2.861741371E-2,2.671438456E-2,4.370346069E-1
3.019609823E1,3.330114856E-2,9.762048721E-3,2.952480316E-2
3.021208944E1,3.845965862E-2,8.801448345E-2,1.126308441E-1
3.022811117E1,-4.067149013E-3,3.884255886E-3,-1.177139282E-1
3.024410238E1,-9.598340094E-2,-1.280790567E-2,-6.998634338E-2
3.026009360E1,-6.406977773E-2,-1.286923885E-3,8.576774597E-2
3.027602377E1,-1.390836388E-2,1.781362295E-2,7.635116577E-2
3.029201498E1,3.831457347E-2,-1.211869717E-2,-7.918739319E-2
3.030803671E1,1.023596339E-2,-2.964967489E-2,-6.950092316E-2
3.032399740E1,-5.171967298E-2,-5.028927326E-2,6.702899933E-2
3.033998862E1,-4.686090350E-2,-2.181339264E-2,1.554393768E-1
3.035588827E1,-2.780469507E-2,6.468415260E-3,1.166305542E-1
3.037187948E1,5.450442433E-3,2.266466618E-3,-6.211280823E-3
3.038777914E1,1.926080137E-2,9.816169739E-3,-5.004501343E-2
3.040373984E1,-1.979790628E-3,-1.570749283E-2,8.573055267E-2
3.041970053E1,-4.326738417E-2,-6.406426430E-3,2.477941513E-1
3.043572226E1,-6.585182250E-2,2.757573128E-2,1.679592133E-1
3.045168295E1,-3.774588928E-2,3.271853924E-2,-1.798810959E-1
3.046767416E1,1.562072895E-2,5.930310488E-2,-3.859128952E-1
3.048360434E1,2.784575522E-2,6.247550249E-2,-2.368688583E-1
3.049956503E1,3.088019788E-3,1.038116217E-2,9.203147888E-2
3.051546469E1,-6.307391822E-2,-2.331364155E-2,3.248414993E-1
3.053145590E1,-6.854864955E-2,-8.452999592E-2,3.317937851E-1
3.054738608E1,-5.767171830E-2,-1.006045938E-1,1.849203110E-1
3.056337729E1,-1.105906069E-2,-6.118053198E-2,4.499721527E-2
3.057933798E1,-1.634800248E-2,1.724076271E-2,-9.485816956E-2
3.059532919E1,-1.663509943E-2,7.446435094E-2,-2.008838654E-1
3.061125937E1,-4.835460335E-2,1.005456448E-1,-2.441406250E-3
3.062725058E1,-8.148817718E-2,1.001822948E-1,5.500125885E-2
3.064318075E1,3.074271232E-2,7.993945479E-2,-1.602706909E-1
3.065917197E1,8.134359866E-2,4.772782326E-3,1.586399078E-1
3.067519369E1,1.030114442E-1,-9.254401922E-2,2.165403366E-1
3.069118490E1,-6.866466254E-3,-1.233082414E-1,-1.590776443E-1
3.070717612E1,-9.392441809E-2,-9.708660841E-2,-2.950134277E-1
3.072310629E1,-1.097465903E-1,-2.272772789E-2,9.862995148E-2
3.073906698E1,-4.481040314E-2,4.341161251E-2,3.845005035E-1
3.075508871E1,1.753760129E-2,6.055271626E-2,3.369274139E-1
3.077107992E1,3.459479660E-2,1.156359911E-2,-6.806182861E-2
3.078707114E1,3.964141011E-3,-9.515881538E-4,-4.252691269E-1
3.080303183E1,-5.627597868E-2,-4.066646099E-3,-2.050466537E-1
3.081902304E1,-1.019974053E-1,-3.704249859E-3,3.194484711E-1
3.083495322E1,-6.100020185E-2,-3.812909126E-3,5.587196350E-1
3.085091391E1,-1.003005356E-2,-1.380664110E-2,1.701240540E-1
3.086687460E1,9.232833982E-3,-2.244889736E-2,-3.166790009E-1
3.088283530E1,1.612699591E-3,-1.121014357E-2,-3.553028107E-1
3.089879599E1,-2.019960061E-2,3.984254599E-2,-9.162330627E-2
3.091481772E1,-1.270351559E-2,7.034587860E-2,1.387395859E-1
3.093080893E1,-1.430360600E-2,7.094013691E-2,1.845455170E-1
3.094680014E1,-1.331545040E-2,4.957437515E-3,2.898130417E-1
3.096276083E1,-3.408934176E-2,-6.904643774E-2,3.108186722E-1
3.097872152E1,-3.231853992E-2,-7.850968838E-2,8.734321594E-2
3.099474325E1,-9.273439646E-3,-6.476652622E-2,-4.352951050E-1
3.101070395E1,2.406348847E-2,-2.219963074E-2,-5.933418274E-1
3.102672568E1,-3.044957295E-2,3.807151318E-2,1.308059692E-2
3.104271689E1,-3.825481981E-2,3.992938995E-2,4.831352234E-1
3.105870810E1,-2.456748113E-2,3.939056396E-2,4.377555847E-1
3.107463827E1,1.113048941E-2,-2.965509892E-3,3.981113434E-2
3.109062948E1,2.359173447E-2,-4.250407219E-4,-2.959127426E-1
3.110665121E1,-1.052710228E-2,7.438600063E-3,-2.457370758E-1
3.112264242E1,-5.481196940E-2,1.356184483E-3,-4.177904129E-1
3.113860312E1,-5.722116679E-3,4.749113321E-2,6.766700745E-1
3.115450278E1,-5.481929332E-2,2.666836977E-2,-2.689971924E-1
3.117049399E1,-2.928698249E-2,-4.155999422E-2,3.556842804E-1
3.118648520E1,-7.263912261E-2,-2.900904417E-2,-3.412666321E-1
3.120247641E1,-2.902602963E-2,-4.869669676E-2,-1.546821594E-1
3.121846762E1,-1.237661205E-2,-1.457154751E-3,-2.543163300E-2
3.123442831E1,8.519133553E-4,2.884781361E-2,-1.816177368E-2
3.125041952E1,-1.644524001E-2,3.562909365E-2,8.250617981E-2
3.126644125E1,-4.719486088E-2,3.305178881E-2,1.279859543E-1
3.128243246E1,-4.676333442E-2,2.059578896E-3,1.780042648E-1
3.129845419E1,-3.243100643E-2,5.854368210E-3,7.460117340E-2
3.131438437E1,-8.097084239E-3,2.313160896E-2,-5.517864227E-2
3.133034506E1,6.952611730E-3,2.890604734E-2,-5.790328979E-2
3.134627524E1,1.028665528E-2,1.546555758E-2,-2.206707001E-2
3.136223593E1,-3.534690291E-2,9.798765182E-3,-3.156375885E-2
3.137819662E1,-4.806170613E-2,-8.040070534E-4,-6.740474701E-2
3.139421835E1,-2.069107071E-2,-6.250679493E-3,-7.184791565E-2
3.141020956E1,-9.033465758E-3,-1.484632492E-3,1.247358322E-1
3.142620077E1,-1.729291119E-2,-2.000647783E-2,2.492694855E-1
3.144213095E1,-5.049455166E-2,-6.680488586E-4,1.052379608E-1
3.145812216E1,-2.297970094E-2,-3.930985928E-3,-2.460861206E-2
3.147405234E1,-6.914588064E-2,8.212745190E-3,6.348133087E-2
3.149001303E1,-5.918694288E-2,1.762717962E-2,-1.354951859E-1
3.150594320E1,5.535873026E-2,6.485646963E-2,-5.866527557E-2
3.152187338E1,3.280706331E-2,4.025840759E-2,1.070022583E-1
3.153783407E1,4.217667505E-2,5.049407482E-3,-1.947402954E-2
3.155385580E1,-3.190719336E-2,-2.871453762E-2,-2.369756699E-1
3.156984701E1,-6.333833933E-2,-5.815857649E-2,-1.457738876E-1
3.158583822E1,-6.324213743E-2,9.019255638E-3,3.386650085E-1
