"Time (s)","Linear Acceleration x (m/s^2)","Linear Acceleration y (m/s^2)","Linear Acceleration z (m/s^2)"
3.864592800E-2,-1.871319413E-1,-3.321951628E-1,-5.980587006E-2
4.864592800E-2,-2.283008099E-1,-3.716883063E-1,2.402496338E-2
5.864592800E-2,-2.199315429E-1,-3.606182933E-1,4.249763489E-2
6.864592800E-2,-2.172251791E-1,-3.336653113E-1,6.696701050E-3
7.864592800E-2,-2.101395875E-1,-3.490316272E-1,-1.735877991E-2
8.864592800E-2,-2.034488618E-1,-3.124646544E-1,-8.679962158E-2
9.864592800E-2,-1.897715032E-1,-3.213863969E-1,-1.275062561E-1
1.086459280E-1,-1.761465222E-1,-3.002244830E-1,-1.444377899E-1
1.186468160E-1,-1.552477777E-1,-2.538195848E-1,-1.375932693E-1
1.286468160E-1,-1.387457848E-1,-2.153215408E-1,-9.504890442E-2
1.386468160E-1,-1.410847306E-1,-2.357559204E-1,-6.938171387E-2
1.486468160E-1,-1.383084357E-1,-2.364935875E-1,-3.659915924E-2
1.586468160E-1,-1.737566590E-1,-2.660154104E-1,-2.295875549E-2
1.686468160E-1,-1.780365407E-1,-2.864089608E-1,-2.122879028E-2
1.786468160E-1,-1.896703392E-1,-2.978518605E-1,5.959606171E-2
1.886468160E-1,-1.823978275E-1,-3.245327473E-1,1.125240326E-2
1.986468160E-1,-1.704147905E-1,-3.014096618E-1,3.479862213E-2
2.086468160E-1,-1.418265402E-1,-3.213284016E-1,-4.939365387E-2
2.186468160E-1,-1.660211086E-1,-3.075325489E-1,2.920150757E-2
2.286471660E-1,-1.280488819E-1,-3.052188158E-1,-7.421493530E-2
2.386471660E-1,-1.667471230E-1,-2.835252881E-1,4.979610443E-2
2.486471660E-1,-1.936443746E-1,-2.949424982E-1,4.208564758E-2
2.586471660E-1,-1.894557327E-1,-3.061164618E-1,6.787300110E-2
2.686471660E-1,-1.700547934E-1,-2.844282389E-1,-1.037454605E-1
2.786471660E-1,-1.427570283E-1,-2.798043489E-1,3.395080566E-2
2.886471660E-1,-9.579381347E-2,-2.363721132E-1,-1.607971191E-1
2.986471660E-1,-1.014266759E-1,-2.123010159E-1,-1.276493073E-2
3.086471660E-1,-8.251708001E-2,-2.093366981E-1,-6.075096130E-2
3.186471660E-1,-7.459172606E-2,-1.766939163E-1,-5.557060242E-3
3.286471660E-1,-7.740686089E-2,-1.695876718E-1,-1.249103546E-1
3.386471660E-1,-1.006192341E-1,-1.520747542E-1,-4.533004761E-2
3.486471660E-1,-5.440210551E-2,-1.602602601E-1,-1.498966217E-1
3.586471660E-1,-5.174542218E-2,-1.046400070E-1,-1.513977051E-1
3.686474320E-1,3.316879272E-3,-4.992157221E-2,-1.863031387E-1
3.786474320E-1,2.594682574E-2,-5.631059408E-2,-3.909111023E-2
3.886474320E-1,8.819699287E-3,-1.163885593E-1,2.685070038E-2
3.986474320E-1,-4.707723856E-3,-1.225810051E-1,2.110767365E-2
4.086474320E-1,-6.713762879E-3,-1.408184171E-1,-1.088905334E-1
4.286471650E-1,-2.621561289E-3,-1.000905037E-1,-1.649560928E-1
4.386471650E-1,-2.464622259E-2,-5.052524805E-2,-1.918268204E-1
4.486471650E-1,-2.908867598E-2,-2.851963043E-3,-2.067785263E-1
4.586471650E-1,-2.009370923E-2,1.468133926E-2,-2.649307251E-1
4.686471650E-1,1.486395299E-2,4.410028458E-3,-2.441806793E-1
4.786473650E-1,2.480983734E-2,1.568967104E-2,-2.354154587E-1
4.886473650E-1,5.606518686E-2,-2.946072817E-2,-1.187839508E-1
4.986473650E-1,8.328780532E-3,-6.723612547E-2,-9.529590607E-2
5.086473650E-1,-2.835869789E-3,-1.229313612E-1,-3.816032410E-2
5.186473650E-1,1.266911626E-3,-1.311818361E-1,-6.475925446E-2
5.386471310E-1,1.762358844E-2,-7.791084051E-2,-1.227426529E-1
5.486471310E-1,6.393608451E-2,-6.578320265E-2,-8.437919617E-2
5.586471310E-1,2.677127719E-2,-4.617667198E-2,-1.442079544E-1
5.686471310E-1,3.077238798E-2,-5.219745636E-2,-7.242107391E-2
5.786471310E-1,3.271627426E-2,-5.509161949E-2,-1.108322144E-1
5.886471310E-1,3.254972398E-2,-5.549931526E-2,-5.827617645E-2
5.986471310E-1,1.343071461E-3,-8.211874962E-2,-1.541709900E-1
6.086471310E-1,1.300111413E-3,-5.874890089E-2,-1.301574707E-2
6.186473970E-1,-1.575376093E-2,-5.756986141E-2,-1.714687347E-1
6.286473970E-1,-2.260123193E-2,-2.841758728E-2,2.207851410E-2
6.386473970E-1,6.052851677E-5,-1.673960686E-2,-1.266984940E-1
6.486473970E-1,-1.243188977E-3,-1.334518194E-2,-1.269445419E-1
6.586473970E-1,4.240533710E-2,2.011054754E-2,-1.462469101E-1
6.786471300E-1,1.807165146E-2,-2.722352743E-2,-5.539608002E-2
6.886471300E-1,2.053306997E-2,-2.983862162E-2,-3.876018524E-2
6.986471300E-1,2.330623567E-2,-2.031528950E-2,-5.326843262E-2
7.086471300E-1,-2.577215433E-3,-2.783608437E-2,-6.296539307E-2
7.186471300E-1,1.001177728E-2,-1.152384281E-2,-6.068801880E-2
7.286473630E-1,2.012532949E-2,-7.267355919E-3,-6.318759918E-2
7.386473630E-1,8.604273200E-3,-1.027822495E-2,-7.764911652E-2
7.486473630E-1,3.053665161E-2,1.062172651E-2,-4.661750793E-2
7.586473630E-1,3.095214069E-2,4.418492317E-3,-1.552486420E-2
7.686473630E-1,1.198469102E-2,-7.064282894E-3,2.279376984E-2
7.886471630E-1,3.471846879E-2,-2.661627531E-2,3.248310089E-2
7.986471630E-1,9.310916066E-3,-3.434538841E-2,1.434326172E-3
8.086471630E-1,-1.078048348E-2,-5.433207750E-2,-1.523685455E-2
8.186471630E-1,-1.603735983E-2,-5.471789837E-2,-2.237987518E-2
8.286471630E-1,-3.518468142E-2,-4.773771763E-2,-3.210067749E-3
8.386471630E-1,-3.922668099E-2,-3.845393658E-2,2.552604675E-2
8.486471630E-1,-1.366193593E-2,-2.234941721E-2,2.314567566E-2
8.586471630E-1,-3.810971975E-2,-4.053515196E-2,5.194473267E-2
8.686474290E-1,-3.551986814E-2,-4.254251719E-2,5.204391479E-2
8.786474290E-1,3.315418959E-3,1.434987783E-2,9.770107269E-2
8.886474290E-1,4.219268262E-2,2.692174911E-2,1.270780563E-1
8.986474290E-1,6.500199437E-2,4.502302408E-2,1.470060349E-1
9.086474290E-1,7.213011384E-2,3.995668888E-2,1.479043961E-1
9.286471620E-1,5.373816192E-2,2.252668142E-2,4.475975037E-2
9.386471620E-1,2.777899802E-2,3.876030445E-3,2.446460724E-2
9.486471620E-1,9.141340852E-3,-1.516497135E-2,-6.998538971E-2
9.586471620E-1,1.444385946E-2,-2.230608463E-2,-5.905151367E-2
9.686471620E-1,7.578447461E-3,-2.251386642E-3,-9.364795685E-2
9.786473950E-1,5.400612950E-3,2.078902721E-2,-7.798671722E-2
9.886473950E-1,-3.528701514E-2,2.282464504E-2,-9.586334229E-2
9.986473950E-1,-3.563103080E-2,3.473842144E-2,-7.542991638E-2
1.008647395E0,-1.064687967E-4,1.104533672E-2,-7.894134521E-2
1.018647395E0,-1.022667438E-2,1.384586096E-2,-6.328773499E-2
1.038647161E0,6.052345037E-3,3.143966198E-3,-5.590152740E-2
1.048647161E0,-1.073928177E-2,2.319228649E-2,-5.459499359E-2
1.058647427E0,-3.028616309E-3,4.025208950E-2,-6.827545166E-2
1.068647427E0,-4.331238568E-3,4.462361336E-2,-8.427524567E-2
1.078647427E0,-1.710203290E-2,4.106163979E-2,-9.779834747E-2
1.088647427E0,-3.407174721E-2,4.225039482E-2,-1.376514435E-1
1.098647427E0,-2.165296674E-2,5.542767048E-2,-1.511659622E-1
1.108647427E0,-1.635100693E-2,4.718041420E-2,-1.503190994E-1
1.118647493E0,5.438528955E-3,8.499026299E-2,-1.950120926E-1
1.128647493E0,-6.957724690E-3,3.617227077E-2,-2.133064270E-1
1.138647493E0,-2.691904828E-2,5.495595932E-2,-2.077102661E-1
1.148647493E0,-3.948558122E-2,5.732727051E-2,-1.758117676E-1
1.158647493E0,-5.636297911E-2,3.370082378E-2,-1.176109314E-1
1.178647226E0,-4.908390343E-2,1.301240921E-2,-2.304553986E-2
1.188647226E0,-4.163499177E-2,1.544260979E-2,-8.450222015E-2
1.198647226E0,-2.069986425E-2,5.438458920E-2,-1.529235840E-1
1.208647226E0,-4.918614402E-3,7.411170006E-2,-2.524518967E-1
1.218647226E0,-1.809786633E-2,6.330525875E-2,-1.221952438E-1
1.228647459E0,-2.199964225E-2,1.003861427E-2,-1.165027618E-1
1.238647459E0,-3.346941620E-2,9.764671326E-3,-1.299934387E-1
1.248647459E0,-4.219266027E-2,1.213884354E-2,-1.482954025E-1
1.258647459E0,-2.676455490E-2,-4.881024361E-3,-1.043148041E-1
1.268647459E0,-6.112014502E-2,5.071783066E-2,-2.929782867E-2
1.288647225E0,-2.170567401E-3,1.172900200E-2,-1.088771820E-1
1.298647225E0,2.328114118E-3,5.547881126E-3,-1.081190109E-1
1.308647225E0,-3.522384912E-2,2.109615803E-1,-1.601390839E-1
1.318647225E0,4.171586782E-2,1.892499924E-1,-1.879501343E-1
1.328647225E0,5.436556041E-2,1.013760567E-1,-2.299242020E-1
1.338647691E0,1.337739546E-2,3.777503967E-2,-2.072858810E-1
1.348647691E0,-5.091926455E-2,-7.472491264E-2,-1.536912918E-1
1.368647690E0,-9.673833847E-2,-9.640383720E-2,-1.192054749E-1
1.378647690E0,-1.108604670E-1,-5.986952782E-2,-1.045894623E-1
1.388647690E0,-1.099862307E-1,-3.260564804E-2,-9.000778198E-2
1.398647690E0,-7.753101736E-2,-2.481615543E-2,-8.734798431E-2
1.408647690E0,-6.661977619E-2,4.309177399E-3,-5.114078522E-2
1.418647890E0,-3.168754280E-2,-1.009583473E-2,-3.162956238E-2
1.428647890E0,-2.566599101E-2,3.029215336E-2,-2.405261993E-2
1.438647890E0,-5.331821740E-3,3.171455860E-2,-4.511547089E-2
1.448647890E0,-4.159398377E-3,3.759348392E-2,-7.810211182E-2
1.458647890E0,4.415169358E-3,6.740999222E-2,-1.015043259E-1
1.468647890E0,3.395766020E-3,9.893381596E-2,-1.439647675E-1
1.478648123E0,6.951452047E-2,8.432972431E-2,-1.719703674E-1
1.488648123E0,1.480267197E-2,5.767405033E-2,-1.903934479E-1
1.498648123E0,-4.652619362E-3,6.992840767E-2,-1.921396255E-1
1.508648123E0,-3.179500252E-2,8.032453060E-2,-1.963539124E-1
1.518648123E0,-1.802784204E-2,6.902730465E-2,-1.718120575E-1
1.538647889E0,4.525952041E-2,4.611182213E-2,-1.011285782E-1
1.548647889E0,3.153809905E-2,-1.667261124E-3,-1.315822601E-1
1.558648155E0,-1.640294492E-2,-2.470946312E-2,-1.573619843E-1
1.568648155E0,-2.125139534E-2,-1.328849792E-1,-1.689167023E-1
1.578648155E0,-7.617825270E-2,-1.113407612E-1,-1.545143127E-1
1.588648155E0,-1.160911173E-1,-5.389511585E-2,-1.356344223E-1
1.598648155E0,-1.375768185E-1,-3.623771667E-2,-1.383972168E-1
1.608648155E0,-8.794367313E-2,4.141986370E-2,-1.267833710E-1
1.618648421E0,-7.129105926E-2,5.573654175E-2,-1.126146317E-1
1.628648421E0,-1.382227242E-2,2.574431896E-2,-1.150360107E-1
1.648647954E0,-1.362816989E-2,-7.893407345E-2,-1.939086914E-1
1.658647954E0,-2.514472604E-2,-8.965396881E-2,-2.610130310E-1
1.668647954E0,-3.697267175E-2,-1.039162874E-1,-2.875843048E-1
1.678647954E0,-3.659427166E-3,-1.114032269E-1,-3.263959885E-1
1.688647954E0,-2.380913496E-2,-6.658136845E-2,-3.223915100E-1
1.698647954E0,-6.107333302E-2,-9.252583981E-2,-2.897987366E-1
1.708647954E0,-6.248034537E-2,-1.187825203E-2,-2.190561295E-1
1.728647920E0,-7.301038504E-2,4.169368744E-2,-8.921718597E-2
1.738647920E0,-6.804119051E-2,2.698230743E-2,-7.297229767E-2
1.748647920E0,-3.938971460E-2,-3.496098518E-2,-5.890083313E-2
1.758647920E0,-4.262159765E-2,-4.450106621E-2,-6.396579742E-2
1.768647920E0,-6.527674198E-2,-6.105399132E-2,-5.708503723E-2
1.788647686E0,4.495665431E-2,-1.080024242E-2,-6.272697449E-2
1.798647686E0,9.050869942E-2,-4.058659077E-2,-4.883289337E-2
1.808647686E0,8.697912097E-2,4.585027695E-3,-8.054924011E-2
1.818647686E0,1.004340351E-1,-9.430348873E-2,-1.002349854E-1
1.828647686E0,-3.750756383E-3,-6.986749172E-2,-1.033191681E-1
1.838647686E0,-6.133267283E-2,-5.928134918E-2,-9.925746918E-2
1.848647686E0,-1.101697981E-1,-6.757950783E-2,-1.287078857E-1
1.868647719E0,-1.467809677E-1,-1.827468872E-1,-1.562795639E-1
1.878647719E0,-1.026346534E-1,-1.008206606E-1,-1.283493042E-1
1.888648019E0,-3.890609741E-2,-3.526473045E-2,-8.853340149E-2
1.898648019E0,2.355769277E-2,-2.100980282E-2,-9.410858154E-2
1.908648019E0,5.874313414E-2,-4.652714729E-2,-1.114988327E-1
1.928647752E0,1.406621933E-1,-1.838555336E-1,-9.365558624E-2
1.938647752E0,1.028629243E-1,-1.248189211E-1,-3.248786926E-2
1.948647752E0,7.648932934E-2,-5.952632427E-2,2.167701721E-3
1.958647752E0,4.547448456E-2,-1.846671104E-2,-5.889701843E-2
1.978647718E0,7.231679559E-2,2.287971973E-2,-1.635560989E-1
1.988647718E0,9.889696538E-2,-1.424700022E-1,-8.773422241E-2
1.998647718E0,8.642686903E-2,-8.027470112E-2,3.088951111E-2
2.008647718E0,5.576016009E-2,3.773808479E-3,7.762813568E-2
2.018647718E0,5.065989494E-2,1.103663445E-2,3.605556488E-2
2.038647484E0,2.936340868E-2,1.225709915E-2,8.948326111E-3
2.048647484E0,3.427588940E-2,-1.730504632E-1,2.549552917E-2
2.058647484E0,-1.063667238E-2,-9.404945374E-2,-1.337718964E-2
2.068647484E0,-2.271540463E-2,-2.459418774E-2,-5.007553101E-2
2.078647484E0,-2.002607286E-2,3.360128403E-2,-1.298761368E-1
2.088647484E0,-4.317498207E-2,1.268219948E-1,-1.975336075E-1
2.098647484E0,-4.263958335E-2,1.409461498E-1,-2.002220154E-1
2.108647484E0,-7.077670097E-2,1.700241566E-1,-1.596136093E-1
2.118647750E0,-8.506238461E-2,9.664058685E-2,-1.235980988E-1
2.128647750E0,-1.345238686E-1,-5.714726448E-2,-6.113910675E-2
2.138647750E0,-1.511021554E-1,-1.429751515E-1,-3.709888458E-2
2.148647750E0,-1.875595450E-1,-2.249099612E-1,-1.323509216E-2
2.158647750E0,-1.617672145E-1,-2.283310294E-1,-1.590728760E-2
2.178647450E0,-1.106842160E-1,-1.439477205E-1,-7.864952087E-2
2.198647150E0,-4.775652289E-2,1.101350784E-2,-2.167034149E-2
2.208647150E0,-6.001517177E-2,4.303944111E-2,-1.716804504E-2
2.218647150E0,-5.189248919E-2,4.167425632E-2,-3.065109253E-3
2.228647383E0,-5.968290567E-2,6.893038750E-3,-5.598449707E-2
2.238647383E0,-5.979394913E-2,-1.354277134E-2,-3.226947784E-2
2.248647383E0,-7.902944088E-2,-6.260257959E-2,-5.165767670E-2
2.258647383E0,-1.035692692E-1,-1.239039898E-1,-3.990364075E-2
2.268647383E0,-1.600273550E-1,-1.400910020E-1,-9.517097473E-2
2.288647149E0,-1.513469815E-1,-1.257787347E-1,-4.054260254E-2
2.298647149E0,-1.259526610E-1,-9.045898914E-2,7.130622864E-3
2.308647149E0,-5.004090071E-2,-7.585275173E-2,1.623058319E-2
2.318647149E0,-2.664393187E-2,-6.261479855E-2,1.583290100E-2
2.328647149E0,5.961212516E-2,-2.893853188E-2,-2.759933472E-2
2.338647149E0,1.025255024E-1,-1.333630085E-2,-5.901336670E-2
2.348647149E0,1.622299552E-1,3.582954407E-3,-9.757900238E-2
2.358647149E0,1.575609446E-1,8.362114429E-3,-1.074657440E-1
2.368647415E0,1.134163886E-1,2.963030338E-2,-1.077861786E-1
2.378647415E0,9.339088202E-2,-8.987486362E-3,-1.224613190E-1
2.388647415E0,2.346783876E-3,-3.495234251E-2,-1.252050400E-1
2.398647415E0,-4.137408733E-2,-9.360986948E-2,-1.088180542E-1
2.408647415E0,-1.095651388E-1,-1.055421233E-1,-1.355848312E-1
2.428647148E0,-1.668574214E-1,-1.441362500E-1,-1.747846603E-1
2.438647414E0,-1.482053101E-1,-9.489119053E-2,-1.824150085E-1
2.448647414E0,-5.337029696E-2,-3.394830227E-2,-1.660871506E-1
2.458647414E0,-3.502392769E-2,-3.845846653E-2,-1.425704956E-1
2.468647414E0,-2.097010612E-3,-7.443368435E-3,-6.881046295E-2
2.478647647E0,1.243644953E-2,-8.370935917E-3,-2.375507355E-2
2.488647647E0,-1.437705755E-2,-3.293460608E-2,3.089427948E-2
2.498647647E0,-5.040052533E-2,-3.602331877E-2,7.120418549E-2
2.508647647E0,-8.296152949E-2,-2.558636665E-2,6.614112854E-2
2.518647647E0,-1.054832637E-1,-3.030419350E-2,3.243923187E-2
2.538647413E0,-1.392054558E-1,-1.581561565E-2,-3.625869751E-3
2.548647413E0,-1.227503717E-1,-3.610432148E-3,-8.428573608E-3
2.558647413E0,-9.331634641E-2,-6.330728531E-3,-2.039241791E-2
2.568647413E0,-5.512744188E-3,3.139513731E-2,-4.912281036E-2
2.578647413E0,3.540313244E-2,4.279625416E-2,-3.957080841E-2
2.588647413E0,5.178265274E-2,5.687594414E-2,-5.638122559E-2
2.598647413E0,7.314743102E-2,6.647026539E-2,-8.517074585E-2
2.608647413E0,6.651870906E-2,6.458449364E-2,-1.163682938E-1
2.618647679E0,5.348369479E-2,5.862212181E-2,-1.212682724E-1
2.628647679E0,3.192767501E-2,3.870987892E-2,-1.333589554E-1
2.638647679E0,-3.188848495E-5,3.984242678E-2,-1.450433731E-1
2.648647679E0,9.067773819E-3,2.527475357E-3,-1.758594513E-1
2.658647679E0,4.213774204E-2,-1.168251038E-3,-1.875286102E-1
2.678647412E0,5.575452000E-2,-4.228025675E-2,-1.917266846E-1
2.688647412E0,7.953447104E-2,-5.691212416E-2,-1.436700821E-1
2.698647412E0,7.586952299E-2,-6.109213829E-2,-1.340227127E-1
2.708647412E0,1.071505249E-1,-6.968027353E-2,-1.890659332E-1
2.718647412E0,1.088360623E-1,-2.725058794E-2,-2.561607361E-1
2.728647645E0,1.080101281E-1,6.191730499E-3,-2.442989349E-1
2.748647378E0,1.105994582E-1,-9.477138519E-3,4.486656189E-2
2.758647378E0,9.165647626E-2,-5.039077997E-2,9.245204926E-2
2.768647378E0,8.655264229E-2,-5.670660734E-2,3.694534302E-3
2.788647144E0,1.250298023E-1,-4.374015331E-2,-6.816864014E-2
2.798647410E0,9.421467036E-2,6.380677223E-3,-8.260345459E-2
2.808647410E0,5.444192141E-2,1.883316040E-2,-1.593360901E-1
2.818647410E0,9.128004313E-4,7.750946283E-2,-1.309976578E-1
2.828647410E0,-1.514706761E-2,1.135953069E-1,-9.318161011E-2
2.838647410E0,-2.435623109E-2,1.101744175E-1,-6.523323059E-2
2.848647410E0,-2.907606214E-2,8.767729998E-2,-3.008270264E-2
2.858647410E0,-3.376533836E-2,6.387209892E-2,-3.789043427E-2
2.868647676E0,-5.745426565E-2,-3.378880024E-2,-1.439571381E-2
2.878647676E0,-7.252468914E-2,-9.532463551E-2,-7.486343384E-3
2.888647676E0,-1.100726277E-1,-1.278598905E-1,-2.674770355E-2
2.898647676E0,-1.246270910E-1,-1.172674298E-1,-6.976127625E-2
2.908647676E0,-9.945111722E-2,-8.560371399E-2,-9.837150574E-2
2.928647409E0,-5.729892105E-2,5.328685045E-2,-1.317701340E-1
2.938647409E0,-2.772657573E-2,6.786113977E-2,-1.414089203E-1
2.948647409E0,3.570640832E-2,2.802687883E-2,-1.582860947E-1
2.958647409E0,1.103451476E-2,2.702945471E-2,-1.847839355E-1
2.968647409E0,6.085850298E-3,9.576618671E-3,-1.945438385E-1
2.978647642E0,6.985750049E-3,6.716609001E-3,-1.851634979E-1
2.998647508E0,-4.175698012E-2,2.755242586E-2,-1.304969788E-1
3.008647508E0,-6.544127315E-2,1.031631231E-2,-1.330766678E-1
3.018647508E0,-5.341879651E-2,-4.993259907E-3,-1.332178116E-1
3.038647274E0,-7.082839310E-2,-1.281893253E-2,-1.310005188E-1
3.048647274E0,-7.367463410E-2,-1.166635752E-2,-1.311140060E-1
3.058647274E0,8.913712576E-3,-1.725941896E-2,-9.033012390E-2
3.068647274E0,6.378084421E-2,1.979529858E-3,-6.399536133E-2
3.078647274E0,9.034344554E-2,1.205307245E-2,-7.122230530E-2
3.088647274E0,8.661653101E-2,1.031440496E-2,-7.607555389E-2
3.108647007E0,3.888715804E-2,1.068454981E-2,-8.591747284E-2
3.118647273E0,1.968742348E-2,7.637143135E-3,-6.214046478E-2
3.128647273E0,5.135496147E-3,-4.881620407E-5,-4.857063293E-3
3.138647273E0,2.872356586E-2,1.128602028E-2,-9.810447693E-3
3.148647273E0,6.613929570E-2,5.246102810E-3,2.052307129E-3
3.158647273E0,8.338847756E-2,-1.803243160E-2,-3.631973267E-2
3.178647006E0,2.435044199E-2,-7.863056660E-2,-8.675193787E-2
3.188647006E0,-4.817227647E-2,-7.151889801E-2,-7.498741150E-2
3.198647006E0,-6.863166392E-2,-5.365908146E-2,-1.016349792E-1
3.208647006E0,-8.734195679E-2,-1.627850533E-2,9.727478027E-4
3.218647006E0,-5.901809782E-2,6.486415863E-3,-9.990596771E-2
3.228647239E0,-2.777000517E-2,1.849782467E-2,-6.749153137E-3
3.238647239E0,-1.371276472E-2,1.036292315E-2,-9.785652161E-2
3.248647239E0,4.520399123E-2,1.577347517E-2,-7.396793365E-2
3.258647239E0,6.941442192E-2,1.127249002E-2,-1.338443756E-1
3.268647239E0,3.518160433E-2,-4.970133305E-3,-7.163524628E-2
3.288647138E0,-6.049331278E-2,-3.194922209E-2,-6.480884552E-2
3.298647138E0,-8.943513781E-2,-2.581185102E-2,-8.668422699E-2
3.308647138E0,-7.873712480E-2,-3.396207094E-2,-1.037807465E-1
3.320197807E0,-5.344412476E-2,-1.605290174E-2,-8.015060425E-2
3.330197807E0,7.284868509E-3,-3.010207415E-2,-8.517646790E-2
3.340197807E0,3.751873598E-2,-3.277695179E-2,-7.578086853E-2
3.350197807E0,7.056913525E-2,4.893720150E-3,-6.395435333E-2
3.360197807E0,8.266687393E-2,-3.303468227E-3,-7.842540741E-2
3.370198073E0,6.260280311E-2,-3.508567810E-3,-6.422901154E-2
3.380198073E0,3.838448972E-2,-1.108944416E-3,-6.920337677E-2
3.390198073E0,1.255853474E-2,-1.264089346E-2,-4.787921906E-2
3.400198073E0,1.649458334E-2,-4.760086536E-2,-4.336071014E-2
3.410198073E0,4.103634506E-3,-5.572187901E-2,-3.409671783E-2
3.430197806E0,2.031833306E-2,-5.680269003E-2,-5.393600464E-2
3.440197806E0,3.609737754E-2,-3.840899467E-2,-5.185699463E-2
3.450197806E0,4.871129245E-2,-6.358903646E-2,-3.297233582E-2
3.460197806E0,3.884498030E-2,-5.221682787E-2,-1.891994476E-2
3.470197806E0,8.379256725E-2,-6.475448608E-2,-7.429504395E-2
3.480198006E0,9.282247722E-2,-1.710504293E-2,-1.225099564E-1
3.490198006E0,8.766200393E-2,-1.264685392E-2,-1.228294373E-1
3.500198006E0,1.583408415E-1,4.147505760E-2,-8.477973938E-2
3.510198006E0,8.618333936E-2,-1.252049208E-2,6.824302673E-2
3.520198272E0,2.565428615E-2,-4.615730047E-2,6.095981598E-2
3.540198038E0,-1.650567353E-2,-8.112353086E-2,-1.353149414E-1
3.550198038E0,-3.266938031E-3,-4.232782125E-2,-1.472826004E-1
3.560198038E0,-1.091956347E-2,-2.202963829E-2,-1.569147110E-1
3.570198038E0,1.058347523E-2,2.067297697E-2,-1.833791733E-1
3.580198038E0,-1.077560335E-2,4.701608419E-2,-2.074842453E-1
3.590198038E0,2.104640007E-4,4.562431574E-2,-2.221059799E-1
3.600198038E0,1.540653408E-2,8.181202412E-2,-1.818141937E-1
3.610198038E0,-2.190199494E-2,6.383842230E-2,-1.366176605E-1
3.620198304E0,-1.383691281E-2,3.260600567E-2,-5.301094055E-2
3.630198304E0,-3.997155279E-2,-1.858252287E-2,2.827358246E-2
3.640198304E0,-4.723800719E-2,-4.609048367E-2,5.451583862E-2
3.650198304E0,-3.543581069E-2,-6.400215626E-2,3.766250610E-2
3.660198304E0,4.866912961E-3,-7.694154978E-2,4.473972321E-2
3.680198037E0,-9.430035949E-3,-7.045298815E-2,-2.976608276E-2
3.690198037E0,-3.495126963E-2,-6.035494804E-2,-6.588172913E-2
3.700198037E0,-5.766783655E-2,-6.900334358E-2,-9.245681763E-2
3.710198037E0,-4.600737244E-2,-6.999063492E-2,-1.214733124E-1
3.720198037E0,-4.303817451E-2,-5.860430002E-2,-1.433458328E-1
3.730198270E0,-1.320128888E-2,-3.513264656E-2,-1.700229645E-1
3.740198270E0,2.847358584E-2,-3.596377373E-2,-1.631488800E-1
3.750198270E0,7.895217836E-2,-2.729159594E-2,-1.394987106E-1
3.760198270E0,7.752847672E-2,-2.373188734E-2,-1.397438049E-1
3.770198270E0,1.295755804E-1,1.301723719E-2,-6.332778931E-2
3.780198303E0,1.321481466E-1,-1.111990213E-2,-3.229999542E-2
3.790198303E0,9.778618813E-2,-2.616161108E-2,-4.192161560E-2
3.800198303E0,7.069981098E-2,-7.706165314E-3,-4.196262360E-2
3.810198303E0,7.078295946E-2,1.998800039E-2,1.107215881E-3
3.830198036E0,5.946016312E-2,5.813241005E-3,-6.101131439E-2
3.840198036E0,3.576219082E-2,1.222759485E-2,-1.039733887E-1
3.850198036E0,-2.361449599E-2,2.339792252E-2,-1.517238617E-1
3.860198036E0,-2.211746573E-2,2.253091335E-2,-1.659679413E-1
3.870198302E0,-2.479484677E-2,3.872352839E-2,-1.634836197E-1
3.880198302E0,-4.144373536E-2,2.597516775E-2,-1.202888489E-1
3.890198302E0,-7.192969322E-3,-7.818341255E-4,-9.149646759E-2
3.900198302E0,8.878856897E-4,-3.217637539E-3,-6.752395630E-2
3.910198302E0,6.603598595E-3,-3.441709280E-2,-1.960659027E-2
3.930198035E0,-1.300436258E-2,-9.765678644E-2,-3.162670135E-2
3.940198035E0,-4.964482784E-2,-7.659411430E-2,-1.259803772E-2
3.950198035E0,-7.575758547E-2,-7.655709982E-2,-3.432750702E-2
3.960198035E0,-8.629212528E-2,-7.124733925E-2,-6.808567047E-2
3.970198035E0,-8.837348223E-2,-3.689700365E-2,-1.042833328E-1
3.980198268E0,-7.539553940E-2,-5.121529102E-3,-1.045656204E-1
3.990198268E0,-4.313722253E-2,-2.697169781E-3,-9.762096405E-2
4.000198268E0,-2.083216608E-2,-7.720589638E-4,-1.002092361E-1
4.010198268E0,-1.591810584E-2,-1.652240753E-3,-9.557342529E-2
4.020198534E0,-4.021978378E-2,6.691277027E-3,-1.124505997E-1
4.040198300E0,-2.907422185E-2,5.527853966E-3,-1.269702911E-1
4.050198300E0,1.327665150E-2,1.072424650E-2,-1.198453903E-1
4.060198300E0,2.122633159E-2,1.357674599E-3,-1.055078506E-1
4.070198300E0,5.692121387E-2,2.076983452E-2,-1.222820282E-1
4.080198333E0,5.087961257E-2,2.042168379E-2,-1.006879807E-1
4.090198333E0,2.732455730E-2,2.236616611E-2,-9.583473206E-2
4.100198333E0,2.047164738E-2,-9.495079517E-3,-9.335231781E-2
4.110198333E0,1.130892336E-2,-3.154873848E-2,-7.173442841E-2
4.120198599E0,2.382799983E-3,-1.959764957E-2,-7.649040222E-2
4.130198599E0,-6.266459823E-3,-3.616213799E-2,-6.211280823E-2
4.140198899E0,2.361443639E-2,-2.101075649E-2,-5.496406555E-2
4.150198899E0,4.378437996E-2,-1.539546251E-2,-2.626705170E-2
4.160198899E0,5.406567454E-2,-1.012217999E-2,-1.908874512E-2
4.180198632E0,1.116797477E-1,-3.393411636E-3,1.831054688E-4
4.190198632E0,1.082391143E-1,-2.124756575E-2,-3.798294067E-2
4.200198898E0,8.996078372E-2,-3.138244152E-3,-7.374572754E-2
4.210198898E0,5.037529767E-2,-2.567154169E-2,-2.052850723E-1
4.220198898E0,9.166970849E-3,-2.824604511E-2,-1.740884781E-1
4.230199131E0,-4.574839771E-2,-1.818329096E-2,-1.357707977E-1
4.240199131E0,-3.757826984E-2,-2.968186140E-2,-1.740827560E-1
4.250199131E0,-1.660838723E-2,-1.038575172E-2,-1.884469986E-1
4.260199131E0,1.203250885E-2,3.518444300E-2,-2.650651932E-1
4.270199131E0,6.197068095E-2,6.802976131E-2,-1.429061890E-1
4.290198897E0,6.393879652E-3,-3.653174639E-2,9.691047668E-2
4.300198897E0,-2.269914746E-2,-5.664831400E-2,3.836631775E-3
4.310198897E0,-4.774858057E-2,-7.762509584E-2,-8.202743530E-2
4.330198630E0,-6.158037484E-2,-1.881480217E-3,-1.104097366E-1
4.340198630E0,-7.721866667E-2,5.659884214E-2,-1.127767563E-1
4.350198630E0,-8.471738547E-2,1.030082107E-1,-1.893768311E-1
4.360198630E0,-7.953248173E-2,9.142649174E-2,-2.084875107E-1
4.370198930E0,-6.116625667E-2,8.562749624E-2,-2.396621704E-1
4.380198963E0,1.950293779E-2,9.677767754E-3,-2.013502121E-1
4.390198963E0,-4.095858335E-2,2.967417240E-2,-5.047798157E-2
4.400198963E0,-4.731962085E-2,2.283012867E-2,3.101825714E-2
4.410198963E0,-4.433488846E-2,8.766651154E-4,7.187557220E-2
4.430198696E0,-1.852060854E-2,-5.370557308E-2,2.829551697E-3
4.450198662E0,1.365514100E-2,-5.377680063E-2,-1.022462845E-1
4.460198662E0,-1.224592328E-3,-4.058450460E-2,-9.500408173E-2
4.470198662E0,7.512688637E-3,-2.432918549E-2,-9.977912903E-2
4.480198862E0,-1.265989244E-2,-2.964180708E-2,-5.906105042E-2
4.490198862E0,-3.734568506E-2,-1.340007782E-2,-5.425930023E-2
4.500198862E0,-1.818957925E-2,-1.706433296E-2,-4.222869873E-2
4.510198862E0,-3.001063317E-2,-2.142781019E-2,-2.535820007E-2
4.520198862E0,-2.257935703E-2,-1.191401482E-2,-2.999877930E-2
4.540198628E0,7.668912411E-3,3.067201376E-2,1.626014709E-3
4.550198628E0,2.298901975E-2,4.459404945E-2,-2.674674988E-2
4.560198628E0,5.232693255E-2,4.311376810E-2,-7.178783417E-2
4.570198628E0,4.027102888E-2,4.356163740E-2,-1.191730499E-1
4.580198628E0,2.788107097E-2,3.441101313E-2,-1.330270767E-1
4.590198628E0,2.262763679E-2,4.953819513E-2,-1.660566330E-1
4.600198628E0,2.202164382E-2,5.768442154E-2,-1.727600098E-1
4.610198628E0,-2.843014896E-3,6.830948591E-2,-1.674909592E-1
4.620198928E0,1.105338335E-3,7.656419277E-2,-1.765861511E-1
4.630198928E0,9.777732193E-3,8.716613054E-2,-1.282119751E-1
4.640198928E0,-9.272247553E-4,1.141420007E-1,-1.133165359E-1
4.650198928E0,1.216480136E-2,5.901241302E-2,-7.441425323E-2
4.660198928E0,1.080468297E-3,4.009658098E-2,-4.510688782E-2
4.680198328E0,2.484320104E-2,2.496474981E-2,-4.164600372E-2
4.690198328E0,-2.642683685E-3,-1.193064451E-2,-8.186149597E-2
4.700198328E0,-1.038208604E-3,-1.696944237E-2,-8.143997192E-2
4.710198328E0,-7.798968256E-2,-5.693089962E-2,-1.433572769E-1
4.720198328E0,-1.034232602E-1,-4.549503326E-2,-1.455307007E-1
4.730198561E0,-1.564405262E-1,-3.571140766E-2,-1.525659561E-1
4.750198294E0,-1.265870929E-1,-1.224100590E-2,-1.284971237E-1
4.760198294E0,-7.668115199E-2,-1.116245985E-2,-1.284399033E-1
4.770198294E0,-1.564422250E-2,8.957147598E-3,-9.484195709E-2
4.790198094E0,4.485175014E-2,6.463021040E-2,-4.903602600E-2
4.810197827E0,2.241609991E-2,9.137737751E-2,-5.563640594E-2
4.820197827E0,-2.028461546E-3,7.243502140E-2,-6.960010529E-2
4.830197827E0,-2.122194320E-2,7.696706057E-2,-8.831024170E-2
4.840197827E0,-4.239385575E-2,4.296207428E-2,-1.069974899E-1
4.850197827E0,-5.131003261E-2,4.032671452E-2,-1.376771927E-1
4.860197827E0,-5.782437697E-2,5.701369047E-2,-1.252727509E-1
4.870198093E0,-5.704297125E-2,3.282874823E-2,-1.176385880E-1
4.880198093E0,-2.069482580E-2,4.145205021E-3,-1.148147583E-1
4.890198093E0,6.586909294E-4,9.568393230E-3,-1.000690460E-1
4.900198093E0,4.486609250E-3,-3.743052483E-3,-9.014606476E-2
4.910198093E0,3.191534802E-2,-3.322380781E-2,-9.464073181E-2
4.930198059E0,5.220832676E-2,3.330230713E-3,-1.301641464E-1
4.940198059E0,3.548148647E-2,-5.821347237E-3,-1.443424225E-1
4.950198059E0,6.892863661E-3,-1.925545931E-2,-1.657505035E-1
4.960198059E0,-2.839401923E-2,-1.299005747E-2,-1.824245453E-1
4.970198059E0,-4.369084910E-2,-1.406967640E-3,-1.608448029E-1
4.980198325E0,-6.826565415E-2,-8.562207222E-3,-8.184528351E-2
4.990198325E0,-4.847599193E-2,-2.504563332E-2,-3.159618378E-2
5.000198325E0,-5.993672833E-2,-2.039819956E-2,-3.876686096E-2
5.010198325E0,4.929527640E-4,5.227923393E-3,-1.392574310E-1
5.020198325E0,1.242274418E-2,4.960137606E-2,-1.918220520E-1
5.040198091E0,3.947601840E-2,-9.202182293E-3,1.421356201E-2
5.050198091E0,3.669651598E-2,-1.583296061E-2,6.988525391E-3
5.060198091E0,2.116318047E-2,-1.620930433E-2,-5.760478973E-2
5.070198091E0,3.216794878E-2,-6.105124950E-3,-1.100826263E-1
5.080198091E0,1.452409104E-2,2.545541525E-2,-1.505794525E-1
5.090198091E0,1.716214791E-2,8.650183678E-2,-1.241168976E-1
5.100198091E0,2.722240612E-2,1.207500100E-1,-1.454925537E-1
5.110198091E0,2.335837111E-2,1.521028876E-1,-2.003421783E-1
5.120198357E0,3.477837890E-2,1.329220533E-1,-2.264394760E-1
5.130198357E0,1.599564403E-2,6.353646517E-2,-2.429733276E-1
5.140198357E0,6.007142365E-4,2.593833208E-2,-2.236623764E-1
5.150198357E0,-7.226780057E-2,-5.666559935E-2,-1.708803177E-1
5.160198623E0,-1.470091641E-1,-1.332453489E-1,-1.565275192E-1
5.180198356E0,-1.915373206E-1,-2.199670076E-1,-1.236953735E-1
5.190198356E0,-1.208578795E-1,-1.769883633E-1,-1.291904449E-1
5.200198356E0,-1.056177393E-1,-1.376805305E-1,-7.492637634E-2
5.210198356E0,-3.845708445E-2,-1.218928695E-1,-6.139278412E-2
5.220198356E0,1.950631849E-2,-6.021612883E-2,-1.675796509E-2
5.230198589E0,8.280817419E-2,-8.647739887E-3,-4.149246216E-2
5.240198589E0,1.155108362E-1,3.323435783E-3,-8.635520935E-3
5.250198589E0,1.518197507E-1,7.344186306E-3,-9.780502319E-2
5.260198589E0,1.532278210E-1,2.964091301E-2,-5.999374390E-2
5.270198589E0,1.199890897E-1,3.430473804E-2,-1.130762100E-1
5.280198589E0,9.583281726E-2,4.524564743E-2,-8.466815948E-2
5.290198589E0,5.975277722E-2,2.141135931E-2,-9.684467316E-2
5.300198589E0,6.193688139E-2,2.533501387E-2,-1.191139221E-3
5.310198589E0,1.570312679E-2,4.284143448E-2,1.164436340E-3
5.320198589E0,9.974129498E-4,3.504741192E-2,8.429527283E-3
5.330198589E0,1.116787270E-2,5.746114254E-2,4.929351807E-2
5.340198589E0,1.536584646E-2,6.218844652E-2,5.432128906E-2
5.350198589E0,-3.422696888E-2,2.750766277E-2,-3.393268585E-2
5.360198589E0,-3.390067816E-2,1.173919439E-2,-9.105205536E-2
5.370198855E0,-7.034640759E-2,-1.335495710E-2,-2.056636810E-1
5.380198855E0,-5.931211263E-2,-4.204303026E-2,-2.365970612E-1
5.390198855E0,-6.447601318E-2,-8.596003056E-2,-2.844333649E-1
5.400198855E0,-6.664707512E-2,-7.738459110E-2,-2.390966415E-1
5.410198855E0,-8.031640947E-2,-9.828406572E-2,-1.579971313E-1
5.430198588E0,-1.335620433E-1,-1.116675138E-1,-4.168891907E-2
5.440198588E0,-1.514196545E-1,-1.171804667E-1,-2.074241638E-2
5.450198588E0,-1.737345457E-1,-8.922964334E-2,5.008697510E-3
5.470198321E0,-8.757717907E-3,-6.702917814E-2,-1.744842529E-2
5.480198554E0,9.789931774E-2,-3.615355492E-2,-7.291030884E-2
5.490198554E0,2.253778130E-1,-1.507765055E-2,-1.020145416E-1
5.500198554E0,3.103615642E-1,3.236949444E-2,-1.263332367E-1
5.510198554E0,3.629388213E-1,8.433347940E-2,-1.123170853E-1
5.520198554E0,3.334071040E-1,9.475845098E-2,-1.293430328E-1
5.540198320E0,2.582364678E-1,-6.450611353E-2,-1.319751740E-1
5.550198320E0,4.099654779E-2,2.621221542E-2,-1.129512787E-1
5.560198320E0,-1.209495813E-1,1.044787765E-1,-1.321964264E-1
5.570198320E0,-2.473090440E-1,8.719420433E-2,-1.800098419E-1
5.590198053E0,-2.850451171E-1,-2.494096756E-3,-2.619714737E-1
5.600198053E0,-2.596440911E-1,-7.684957981E-2,-2.669715881E-1
5.610198053E0,-1.358731389E-1,-1.299344301E-1,-2.288503647E-1
5.620198319E0,-6.478042901E-2,-1.546768546E-1,-1.452054977E-1
5.630198319E0,-8.619535714E-3,-1.753137708E-1,3.426933289E-2
5.640198619E0,-9.402384982E-3,-1.493401527E-1,2.018871307E-1
5.650198619E0,-1.929595172E-1,-1.443693638E-1,4.223442078E-1
5.660198619E0,-2.928716540E-1,-1.680443287E-1,5.352802277E-1
5.680198352E0,-5.316905975E-1,-1.294761300E-1,7.140445709E-1
5.690198352E0,-3.919838071E-1,-2.533137798E-2,6.866617203E-1
5.700198385E0,-2.140018046E-1,7.474738359E-2,5.733089447E-1
5.710198385E0,1.993916184E-1,1.958934069E-1,2.804641724E-1
5.720198385E0,4.171921313E-1,2.434878349E-1,7.133007050E-2
5.730198618E0,6.589489579E-1,2.522057295E-1,-2.960720062E-1
5.740198618E0,6.596922874E-1,2.276701927E-1,-5.417337418E-1
5.750198618E0,3.694804311E-1,1.345474720E-1,-8.452911377E-1
5.760198618E0,1.347798705E-1,6.412321329E-2,-9.290170670E-1
5.770198618E0,-2.957634330E-1,-2.553415298E-2,-9.629755020E-1
5.790198384E0,-4.877347052E-1,-1.136133671E-1,-8.683738708E-1
5.800198384E0,-4.169073403E-1,-1.004219651E-1,-7.730398178E-1
5.810198384E0,-1.885577738E-1,-6.668090820E-2,-5.961513519E-1
5.830198117E0,1.843737960E-1,-8.968585730E-2,1.406002045E-2
5.840198117E0,2.462915033E-1,-1.147071123E-1,1.314888000E-1
5.850198117E0,2.408154607E-1,-1.236098409E-1,2.491931915E-1
5.860198117E0,1.657953858E-1,-8.458334208E-2,3.216199875E-1
5.870198383E0,-1.044658124E-1,-3.279650211E-2,4.684209824E-1
5.880198649E0,-2.629571557E-1,-8.057415485E-3,5.291080475E-1
5.890198649E0,-4.701968133E-1,2.837556601E-2,5.874509811E-1
5.900198649E0,-5.020146966E-1,7.438194752E-2,5.955429077E-1
5.910198649E0,-3.049866557E-1,9.974604845E-2,4.982309341E-1
5.930198382E0,2.129768133E-1,1.186565757E-1,3.154754639E-1
5.950198348E0,4.945352674E-1,2.328383923E-2,1.051902771E-2
5.960198348E0,4.954598248E-1,3.150701523E-4,-1.325273514E-1
5.970198348E0,3.856184185E-1,-9.929418564E-3,-3.116111755E-1
5.980198548E0,2.332376242E-1,-1.894629002E-2,-3.926801682E-1
5.990198548E0,-2.167808264E-2,-4.361522198E-2,-4.068145752E-1
6.010198514E0,-4.056561291E-1,-8.487933874E-2,-3.754606247E-1
6.020198514E0,-5.267695785E-1,-1.104837060E-1,-3.274097443E-1
6.040198280E0,-6.288729310E-1,-2.436990142E-1,-3.195648193E-1
6.050198280E0,-5.289664268E-1,-2.559400201E-1,-3.525485992E-1
6.060198546E0,-3.737272322E-1,-2.312499881E-1,-3.853788376E-1
6.070198546E0,-1.046714708E-1,-1.097025275E-1,-4.252376556E-1
6.080198546E0,8.099605143E-2,-3.955578804E-2,-4.290504456E-1
6.090198546E0,2.872762382E-1,7.124590874E-2,-4.400320053E-1
6.100198546E0,3.357993662E-1,1.252596378E-1,-4.343261719E-1
6.110198546E0,3.444788158E-1,1.565924883E-1,-3.306035995E-1
6.120198846E0,2.608460188E-1,1.444290876E-1,-2.031698227E-1
6.130198846E0,9.876627475E-2,1.175519228E-1,1.021766663E-2
6.140198846E0,-1.836275496E-2,1.043566465E-1,1.372232437E-1
6.150198846E0,-1.736992598E-1,9.287381172E-2,2.879848480E-1
6.160198846E0,-2.082926929E-1,7.701599598E-2,3.788537979E-1
6.180198312E0,-2.074171156E-1,8.419489861E-2,4.863195419E-1
6.190198312E0,-1.262492388E-1,2.786624432E-2,4.742240906E-1
6.200198312E0,-8.459299058E-2,4.547357559E-2,4.669475555E-1
6.210198312E0,9.309076704E-3,-1.914227009E-2,4.789190292E-1
6.220198312E0,3.877304494E-2,-3.944504261E-2,3.234243393E-1
6.230198545E0,2.412919141E-2,-1.077222824E-1,2.328491211E-1
6.250198278E0,-1.232952997E-2,-1.439849138E-1,-1.249065399E-1
6.260198278E0,-4.162493348E-2,-1.499358416E-1,-2.412834167E-1
6.270198278E0,-1.039706990E-1,-1.328055859E-1,-4.054365158E-1
6.290198078E0,-1.094567180E-1,-5.439257622E-2,-5.156812668E-1
6.300198344E0,-7.744540274E-2,-4.929304123E-2,-5.888156891E-1
6.310198344E0,-3.980614245E-2,-1.869857311E-2,-5.687513351E-1
6.320198344E0,-1.215834823E-2,-6.210565567E-3,-5.392284393E-1
6.330198344E0,2.285322733E-2,2.664959431E-2,-4.667510986E-1
6.340198344E0,1.566441171E-2,3.921306133E-2,-4.255437851E-1
6.350198344E0,2.121549658E-2,5.276191235E-2,-3.174123764E-1
6.360198344E0,-1.109820604E-2,7.719469070E-2,-2.261943817E-1
6.370198610E0,-6.942022592E-2,6.687664986E-2,-6.807804108E-2
6.380198610E0,-1.398283392E-1,4.337501526E-2,1.088905334E-2
6.390198610E0,-1.909710318E-1,1.385533810E-2,1.064777374E-1
6.400198610E0,-1.873091459E-1,-1.564407349E-2,1.589698792E-1
6.410198610E0,-1.273474842E-1,-1.196539402E-2,2.234706879E-1
6.430198576E0,-4.719570279E-2,-5.177342892E-2,3.023767471E-1
6.440198576E0,-3.842727095E-2,-6.442332268E-2,3.144254684E-1
6.450198576E0,2.267456427E-2,-4.483807087E-2,2.978963852E-1
6.460198576E0,2.439256571E-2,-2.958214283E-2,2.768144608E-1
6.470198576E0,3.882817551E-2,3.971421719E-2,1.936130524E-1
6.480198842E0,4.707607627E-2,5.348539352E-2,1.296281815E-1
6.490198842E0,5.387127399E-2,6.262874603E-2,6.084060669E-2
6.500198842E0,3.300129995E-2,7.507777214E-2,-2.270698547E-2
6.510198842E0,2.180873044E-2,3.216445446E-2,-1.708602905E-1
6.520198842E0,-2.970439941E-2,3.025245667E-2,-2.232780457E-1
6.540198608E0,-1.107520461E-1,-3.339111805E-2,-2.900848389E-1
6.550198608E0,-1.533448100E-1,-5.848157406E-2,-4.048290253E-1
6.560198608E0,-1.715403795E-1,-4.796230793E-2,-5.075578690E-1
6.570198608E0,-1.746277958E-1,-5.432605743E-2,-5.671672821E-1
6.580198608E0,-1.648487002E-1,-5.494201183E-2,-5.071706772E-1
6.590198608E0,-1.421387643E-1,-1.428762674E-1,-3.300008774E-1
6.610198341E0,5.345325917E-2,-1.063685417E-1,-3.472499847E-1
6.620198607E0,9.515386075E-2,-8.867871761E-2,-3.449287415E-1
6.630198607E0,-2.132288367E-2,-8.530580997E-2,-2.612428665E-1
6.640198607E0,-1.258237660E-2,-1.236110926E-1,-1.801137924E-1
6.650198607E0,1.539944857E-2,-2.036750317E-2,-1.160707474E-1
6.670198073E0,1.943928599E-1,3.355940580E-1,-7.014274597E-3
6.680198073E0,1.378626227E-1,3.233963251E-1,2.088928223E-2
6.690198073E0,8.538536727E-3,1.670912504E-1,8.931636810E-2
6.700198073E0,-4.622347653E-2,6.337654591E-2,1.290369034E-1
6.710198073E0,-2.101466060E-2,-6.301307678E-2,1.928243637E-1
6.720198073E0,1.619614661E-2,-9.056985378E-2,1.993246078E-1
6.730198306E0,2.308537811E-2,-1.030231714E-1,1.868467331E-1
6.740198306E0,2.904444933E-2,-9.519076347E-2,1.361980438E-1
6.750198306E0,2.276095748E-2,-4.263865948E-2,7.605838776E-2
6.760198306E0,-4.903644323E-3,-7.361412048E-3,1.837539673E-2
6.770198306E0,2.043256164E-2,4.005432129E-2,-8.002281189E-2
6.780198306E0,4.861209542E-2,4.466915131E-2,-1.305646896E-1
6.790198306E0,4.849890620E-2,4.745697975E-2,-1.308870316E-1
6.800198306E0,3.438936174E-2,3.638386726E-2,-2.629432678E-1
6.810198306E0,4.677910358E-2,-1.973414421E-2,-3.423748016E-1
6.820198306E0,3.227782249E-2,-3.249299526E-2,-3.734416962E-1
6.830198306E0,1.794014871E-2,-6.605327129E-2,-3.854398727E-1
6.840198606E0,-7.952600718E-4,-6.976032257E-2,-3.951654434E-1
6.850198606E0,-2.204564214E-2,-4.349684715E-2,-3.571500778E-1
6.860198606E0,-3.612707555E-2,-1.481115818E-2,-3.287134171E-1
6.870198872E0,-6.184844673E-2,-1.803553104E-2,-2.858171463E-1
6.880198872E0,-4.368098825E-2,-2.154529095E-2,-2.500610352E-1
6.890198872E0,-3.465636820E-2,-4.203486443E-2,-1.424484253E-1
6.900198872E0,-3.505322337E-2,-3.594446182E-2,-9.950542450E-2
6.910198872E0,-2.339026332E-2,-3.216183186E-2,-8.769512177E-2
6.930198605E0,1.408132166E-2,1.462185383E-2,-3.784275055E-2
6.940198605E0,2.322902530E-2,1.724398136E-2,2.171134949E-2
6.950198605E0,3.206338733E-2,2.269577980E-2,6.684875488E-2
6.960198605E0,5.462666973E-2,4.038846493E-2,8.800792694E-2
6.970198605E0,4.515050352E-2,-1.395452023E-2,1.642475128E-1
6.980198838E0,3.528203815E-2,-2.449381351E-2,1.661872864E-1
6.990198838E0,3.506293148E-2,-3.479516506E-2,1.585245132E-1
7.000198838E0,4.460923001E-2,-5.238401890E-2,1.269388199E-1
7.010198838E0,1.447081566E-3,-7.921683788E-2,7.616138458E-2
7.030198337E0,1.964358240E-2,-6.250035763E-2,-5.180644989E-2
7.040198337E0,2.288688719E-2,-4.352402687E-2,-8.823585510E-2
7.050198337E0,-2.425148338E-2,-3.460597992E-2,-1.533412933E-1
7.060198337E0,3.282412887E-3,-2.123522758E-2,-1.657323837E-1
7.070198337E0,-1.497058570E-2,-2.057874203E-2,-1.804389954E-1
7.080198337E0,5.335360765E-5,-2.753376961E-2,-1.951007843E-1
7.090198337E0,7.316060364E-3,-2.809560299E-2,-2.408075333E-1
7.100198337E0,1.723645627E-2,-2.408075333E-2,-2.481813431E-1
7.110198337E0,3.851951286E-2,-3.936731815E-2,-2.746973038E-1
7.120198603E0,2.626094967E-2,-2.119529247E-2,-2.820520401E-1
7.130198603E0,1.876586303E-2,-1.982855797E-2,-2.870063782E-1
7.150198569E0,3.687364236E-2,-1.609480381E-2,-2.443504333E-1
7.160198569E0,2.865394950E-2,-1.343846321E-2,-2.255010605E-1
7.180198302E0,-4.975061864E-3,-2.344727516E-3,-1.208667755E-1
7.190198302E0,-3.581624478E-3,-1.085698605E-2,-5.899906158E-2
7.200198568E0,-1.405925676E-2,-2.849709988E-2,-4.745388031E-2
7.210198568E0,-4.599326104E-2,-1.218581200E-2,2.355575562E-3
7.220198568E0,-2.706014365E-2,-5.342066288E-2,6.690979004E-3
7.230198868E0,-2.242855355E-2,-5.850964785E-2,9.480285645E-2
7.240198868E0,8.671328425E-3,-5.900758505E-2,2.492046356E-2
7.250198868E0,-1.088850573E-2,-6.677353382E-2,6.518173218E-2
7.260198868E0,7.991245016E-3,-6.948393583E-2,-3.344535828E-2
7.270198868E0,1.261929236E-2,-2.894455194E-2,6.902885437E-2
7.290198634E0,2.161763795E-2,-3.894186020E-2,6.569671631E-2
7.300198634E0,2.816678025E-2,-3.250521421E-2,-4.963588715E-2
7.310198634E0,3.520694003E-2,1.741647720E-3,-1.624794006E-1
7.320198634E0,5.679909885E-2,2.595955133E-2,-2.441520691E-1
7.330198634E0,5.629081279E-2,1.143997908E-2,-2.108602524E-1
7.340198634E0,3.082733974E-2,-3.865391016E-2,-6.507492065E-2
7.350198634E0,2.598926425E-2,-3.560715914E-2,-6.538009644E-2
7.360198634E0,1.601252891E-2,-1.190905571E-1,-9.198474884E-2
7.370198900E0,4.195568338E-2,-1.288616657E-1,-2.190933228E-1
7.390198633E0,2.052627131E-2,-1.285099983E-2,-2.723312378E-1
7.400198633E0,-1.456254069E-2,5.413055420E-3,-2.846755981E-1
7.410198633E0,-3.208796494E-3,6.510007381E-2,-3.042688370E-1
7.430198366E0,3.890817240E-2,8.279800415E-2,-2.047100067E-1
7.450198099E0,3.996168822E-2,-5.935132504E-3,-5.692672729E-2
7.460198099E0,4.416659102E-2,-5.826002359E-2,-6.898880005E-3
7.470198099E0,2.816195041E-2,-9.108161926E-2,4.310131073E-2
7.480198365E0,4.260502383E-2,-1.036421657E-1,6.427288055E-2
7.490198365E0,5.053178966E-2,-9.588789940E-2,6.618499756E-2
7.510198098E0,1.712486893E-2,-5.846327543E-2,6.521987915E-2
7.520198098E0,1.130247489E-2,-5.327594280E-2,6.477928162E-2
7.540197798E0,2.454640716E-2,-4.697483778E-2,1.378250122E-2
7.550197798E0,7.086470723E-3,-2.380114794E-2,-4.617786407E-2
7.560197798E0,1.160210371E-2,-5.817133188E-2,-5.346012115E-2
7.570197798E0,1.974901557E-2,-3.740715981E-2,-9.927558899E-2
7.580197798E0,8.937820792E-3,-4.067414999E-2,-1.139593124E-1
7.590197798E0,-3.865793347E-3,-1.257604361E-2,-1.286640167E-1
7.600197798E0,1.249362528E-2,6.043910980E-4,-1.241674423E-1
7.610197798E0,2.391781658E-2,-2.288275957E-2,-1.411495209E-1
7.620198098E0,1.579300314E-2,-6.042122841E-3,-1.628808975E-1
7.630198098E0,4.202648997E-4,-3.759223223E-2,-1.534414291E-1
7.640198398E0,3.121697158E-2,-6.664872169E-3,-1.416339874E-1
7.650198398E0,2.122442424E-2,-2.403014898E-2,-1.417589188E-1
7.660198398E0,3.038079292E-2,-1.733654737E-2,-1.514701843E-1
7.680198131E0,2.915622294E-2,5.706667900E-3,-2.091979980E-1
7.690198131E0,4.211702943E-2,-6.795763969E-3,-1.710052490E-1
7.700198397E0,1.498028636E-3,-9.086608887E-3,-1.520071030E-1
7.710198397E0,3.516988456E-2,-1.369923353E-2,-5.879306793E-2
7.720198397E0,1.840491593E-2,-6.145060062E-3,-2.784061432E-2
7.730198663E0,2.588982880E-2,-1.770913601E-2,2.705097198E-2
7.740198663E0,4.074110091E-2,-1.239740849E-2,3.165340424E-2
7.750198663E0,2.441215515E-2,-5.072498322E-2,6.264209747E-2
7.760198663E0,3.975209594E-2,-5.254030228E-2,3.611373901E-2
7.770198663E0,3.860007226E-2,-7.889622450E-2,2.639293671E-2
7.790198396E0,9.302094579E-3,-5.780500174E-2,-2.432250977E-2
7.800198396E0,1.322247088E-2,-3.713196516E-2,-4.613971710E-2
7.810198396E0,-8.869305253E-3,-1.414018869E-2,-7.513809204E-2
7.820198396E0,5.581691861E-3,-3.701865673E-3,-8.254909515E-2
7.830198396E0,-1.607641578E-3,-1.522684097E-2,-9.470939636E-2
7.840198396E0,2.234403789E-2,-5.540847778E-3,-9.487247467E-2
7.850198396E0,3.635971248E-2,1.442134380E-3,-1.285200119E-1
7.860198396E0,3.833918273E-2,-1.246631145E-3,-1.382160187E-1
7.870198662E0,3.525771201E-2,-9.224236012E-3,-1.406822205E-1
7.880198928E0,3.002531826E-2,-1.244157553E-2,-1.551198959E-1
7.890198928E0,1.770308614E-2,-1.567709446E-2,-1.432218552E-1
7.900198928E0,2.247394621E-2,-1.647919416E-2,-1.504859924E-1
7.910198928E0,4.898384213E-2,-7.735669613E-3,-1.338071823E-1
7.930198628E0,1.727059484E-2,-2.171152830E-2,-1.267395020E-1
7.950198328E0,2.758800983E-3,-2.834808826E-2,-9.095859528E-2
7.960198328E0,5.680561066E-3,-2.428257465E-2,-8.865928650E-2
7.970198328E0,8.607223630E-3,-2.252048254E-2,-8.157634735E-2
7.980198561E0,2.579271793E-3,-2.535241842E-2,-6.255149841E-2
7.990198561E0,2.030466497E-2,-9.129464626E-3,-6.027412415E-2
8.000198561E0,3.036840260E-2,-4.628062248E-3,-5.082225800E-2
8.010198561E0,3.570447862E-2,-7.224261761E-3,-3.658866882E-2
8.020198561E0,1.182727516E-2,-9.995222092E-3,-4.148387909E-2
8.040198294E0,-4.615262151E-3,-2.996999025E-2,-1.056766510E-2
8.050198294E0,2.742685378E-2,-2.758562565E-2,1.561546326E-2
8.060198560E0,1.099704206E-2,-1.567953825E-2,2.505874634E-2
8.070198560E0,2.615357935E-2,-4.012358189E-2,-1.386642456E-3
8.080198560E0,1.954960823E-2,-6.219899654E-2,-1.824760437E-2
8.090198560E0,1.532748342E-2,-3.390961885E-2,-5.666160583E-2
8.100198560E0,-4.870146513E-4,-2.248835564E-2,-7.831668854E-2
8.110198560E0,-2.285508811E-2,-1.597046852E-2,-5.927658081E-2
8.120198860E0,-6.448045373E-3,-7.460772991E-3,-4.739952087E-2
8.130198860E0,2.189043164E-2,-2.602839470E-2,-1.384134293E-1
8.140198860E0,2.380222082E-3,3.070056438E-3,-2.006826401E-1
8.150198860E0,3.361558914E-2,2.480620146E-2,-2.054891586E-1
8.160198860E0,4.537478089E-2,3.461319208E-2,-1.600103378E-1
8.180198326E0,1.432366669E-2,-3.955948353E-2,6.994342804E-2
8.190198326E0,-2.164350450E-2,-8.623743057E-2,6.618499756E-4
8.200198326E0,-1.528578997E-2,-8.777433634E-2,-2.553558350E-2
8.210198326E0,8.792474866E-3,-3.613716364E-2,-1.212282181E-1
8.220198326E0,-2.208577096E-2,-1.776009798E-2,1.768970490E-2
8.230198559E0,-1.426014304E-2,4.889518023E-2,-9.961318970E-2
8.240198792E0,-6.229981780E-3,8.432894945E-2,-1.139621735E-1
8.250198792E0,-1.230721176E-2,1.032366753E-1,-2.336807251E-1
8.260198792E0,5.677938461E-3,6.875842810E-2,-1.953296661E-1
8.270198792E0,4.695196450E-2,5.517286062E-2,-1.760663986E-1
8.290198558E0,6.783843040E-3,-5.615353584E-3,-4.150199890E-2
8.310198291E0,-5.233211815E-2,-7.227176428E-2,7.399082184E-2
8.320198291E0,-5.205988884E-2,-6.089395285E-2,3.591251373E-2
8.330198291E0,-7.240281999E-2,-7.757532597E-2,-3.336620331E-2
8.340198291E0,-3.644955158E-2,-7.434421778E-2,-5.963897705E-2
8.350198291E0,-2.572357655E-3,-2.498871088E-2,-1.051216125E-1
8.370198290E0,2.546165884E-2,-1.531392336E-2,-1.050376892E-1
8.380198290E0,3.152741492E-2,-2.235174179E-5,-9.537410736E-2
8.390198290E0,4.207785428E-2,2.439272404E-2,-6.411933899E-2
8.400198290E0,-5.030125380E-3,1.628285646E-2,-5.668830872E-2
8.410198290E0,-3.722678125E-2,3.838330507E-2,-3.243732452E-2
8.430198256E0,-5.854466558E-2,5.296593904E-2,-2.920341492E-2
8.440198256E0,-2.133613825E-2,3.133314848E-2,-5.741977692E-2
8.450198256E0,-1.563303173E-2,4.286384583E-2,-1.095333099E-1
8.460198256E0,1.602134109E-2,3.020453453E-2,-1.017541885E-1
8.470198256E0,-3.146007657E-3,2.473640442E-2,-8.677577972E-2
8.480198256E0,2.574920654E-2,3.213262558E-2,-1.077833176E-1
8.490198256E0,3.997947276E-2,2.745807171E-2,-1.096172333E-1
8.500198256E0,1.770241559E-2,4.680085182E-2,-1.090450287E-1
8.510198256E0,1.284480095E-5,5.426877737E-2,-9.889507294E-2
8.520198256E0,-7.451623678E-4,4.492461681E-2,-1.031036377E-1
8.540197788E0,-1.533938944E-2,5.020284653E-2,-7.562160492E-2
8.550197788E0,-3.032326698E-3,5.766957998E-2,-3.195762634E-2
8.560197788E0,1.153272390E-2,2.192240953E-2,-2.657985687E-2
8.570197788E0,2.317257226E-2,3.200381994E-2,-3.079605103E-2
8.580197788E0,1.992860436E-2,3.845214844E-3,-3.260707855E-2
8.590197788E0,-2.739548683E-3,1.194763184E-2,-3.923130035E-2
8.600197788E0,-1.780939102E-2,-1.401185989E-3,-7.220363617E-2
8.610197788E0,-5.392785370E-2,1.073479652E-4,-1.411409378E-1
8.620198054E0,-7.483144850E-2,-1.718437672E-2,-1.598443985E-1
8.630198054E0,-8.319409192E-2,1.178151369E-2,-1.810235977E-1
8.640198054E0,-6.960114092E-2,3.607451916E-2,-2.046108246E-1
8.650198054E0,-6.084005535E-2,4.355233908E-2,-1.874866486E-1
8.660198054E0,-3.781150281E-2,4.603809118E-2,-1.703376770E-1
8.680197787E0,-1.926612854E-2,6.268757582E-2,-1.168270111E-1
8.690197787E0,-1.636832952E-3,4.294186831E-2,-9.959030151E-2
8.700197787E0,3.910109401E-3,4.215764999E-2,-9.669303894E-2
8.710197787E0,2.279683948E-3,3.400355577E-2,-7.461929321E-2
8.730197753E0,-1.858282089E-2,3.184503317E-2,-2.324390411E-2
8.740197753E0,-1.840244234E-2,5.197715759E-2,-1.546859741E-2
8.750197753E0,-1.340368390E-2,4.264599085E-2,1.393318176E-2
8.760197753E0,-2.264405787E-2,3.515338898E-2,-4.487991333E-3
8.770197753E0,-2.685818821E-2,5.885839462E-3,-2.527713776E-2
8.780197753E0,4.474073648E-4,2.219021320E-2,-5.085945129E-2
8.790197753E0,-2.002822608E-2,2.337574959E-3,-4.528713226E-2
8.800197753E0,-2.637518942E-2,-1.978635788E-3,-5.658817291E-2
8.810197753E0,-3.022177517E-2,6.045222282E-3,-6.552886963E-2
8.820197753E0,-2.667206526E-2,1.682794094E-2,-6.971740723E-2
8.830197753E0,-3.971594572E-2,1.108837128E-2,-7.392978668E-2
8.840197753E0,-2.851872891E-2,3.430426121E-2,-7.098102570E-2
8.850197753E0,-3.229886293E-3,2.361869812E-2,-2.967739105E-2
8.860197753E0,4.302307963E-3,4.164028168E-2,-2.187252045E-2
8.870198019E0,-8.119218051E-3,6.869316101E-2,-4.751586914E-2
8.880198019E0,-2.287634462E-2,3.441894054E-2,-6.580829620E-2
8.890198019E0,-2.111038566E-2,4.592692852E-2,-9.848880768E-2
8.900198019E0,-1.911559701E-2,1.429903507E-2,-1.239776611E-1
8.910198019E0,-1.021277159E-2,3.269815445E-2,-1.685829163E-1
8.930197752E0,-1.627980918E-2,4.052829742E-2,-2.029552460E-1
8.940197752E0,-2.663740143E-2,2.774906158E-2,-2.286596298E-1
8.950197752E0,-2.453451231E-2,5.594456196E-2,-2.687616348E-1
8.960197752E0,-3.149375319E-2,5.113399029E-2,-2.227315903E-1
8.970197752E0,-3.822194040E-2,7.307410240E-2,-1.049232483E-1
8.980197952E0,-3.782099858E-2,8.041357994E-2,-9.721755981E-2
8.990197952E0,-8.713796735E-3,5.557858944E-2,-1.372680664E-1
9.000197952E0,-6.355188787E-3,7.301032543E-2,-2.131252289E-1
9.010197952E0,-3.275741264E-2,2.524781227E-2,-2.386341095E-1
9.020197952E0,-2.038760111E-2,8.392333984E-4,-1.901378632E-1
9.040197718E0,-1.140184700E-3,-3.535330296E-2,-7.463550568E-2
9.050197718E0,-3.123642877E-2,-2.999794483E-2,-1.127281189E-1
9.060197718E0,-3.516840190E-2,-2.936053276E-2,-1.077308655E-1
9.070197718E0,-4.164970666E-2,1.947581768E-2,-9.319496155E-2
9.080197984E0,-8.102607727E-2,3.479802608E-2,-7.866382599E-2
9.090197984E0,-5.201167986E-2,7.502293587E-2,-1.552343369E-1
9.100197984E0,-2.168204635E-2,9.408199787E-2,-1.935501099E-1
9.110197984E0,5.757094920E-2,1.017050743E-1,-2.630596161E-1
9.120198250E0,6.449554116E-2,1.163771152E-1,-2.894506454E-1
9.130198250E0,1.027659327E-1,6.824564934E-2,-2.783393860E-1
9.140198250E0,3.487534821E-2,3.688573837E-3,-2.313432693E-1
9.150198250E0,4.062490538E-3,-9.203875065E-2,-2.106685638E-1
9.160198250E0,-6.246119738E-3,-1.425729990E-1,-1.971321106E-1
9.180197983E0,-3.620649129E-2,-1.416109800E-1,-2.249965668E-1
9.190197983E0,-3.906149790E-2,-9.415352345E-2,-2.353620529E-1
9.200198249E0,-3.529261798E-2,-6.309020519E-2,-2.433700562E-1
9.210198249E0,-7.907485589E-3,-3.576278687E-6,-1.557064056E-1
9.220198249E0,1.443313248E-2,2.086973190E-2,-1.471452713E-1
9.230198249E0,4.376923293E-2,2.123630047E-2,-1.123561859E-1
9.240198249E0,2.980044112E-2,2.215778828E-2,-8.719444275E-2
9.250198249E0,1.134555787E-3,2.150893211E-3,-6.448268890E-2
9.260198249E0,-3.556776792E-3,2.076816559E-2,-6.334114075E-2
9.270198249E0,-1.275509968E-2,1.104521751E-2,-8.377456665E-2
9.290198049E0,-2.721589059E-3,-7.191181183E-3,6.081581116E-3
9.300198049E0,-1.087345928E-2,3.367662430E-4,7.257270813E-2
9.310198049E0,-1.187465340E-2,-3.587615490E-2,1.703357697E-2
9.320198049E0,3.537492454E-2,-3.637039661E-2,2.215385437E-3
9.330198049E0,3.432147205E-2,-6.617116928E-2,6.615638733E-3
9.340198049E0,2.096112072E-2,-7.160699368E-2,-3.391265869E-3
9.350198049E0,7.245101035E-3,-7.897430658E-2,-9.005641937E-2
9.360198049E0,8.149139583E-3,-6.130111217E-2,-1.026153564E-1
9.370198315E0,1.365844533E-2,-5.995696783E-2,-1.104240417E-1
9.390198048E0,-7.511783391E-3,-3.676027060E-2,-9.025096893E-2
9.400198048E0,9.277854115E-3,-3.980320692E-2,-3.583431244E-2
9.410198048E0,2.585225180E-2,-7.151502371E-2,-2.211856842E-2
9.430197781E0,1.746520400E-2,-1.091901064E-1,-6.164646149E-2
9.440197781E0,1.475004852E-2,-1.044759154E-1,-5.514907837E-2
9.450197781E0,2.155830711E-2,-9.460538626E-2,-7.740879059E-2
9.460197781E0,1.138560474E-2,-7.962745428E-2,-8.293437958E-2
9.470197781E0,3.643639386E-3,-7.188051939E-2,-6.450557709E-2
9.480197981E0,-1.584585011E-2,-5.975383520E-2,-8.434009552E-2
9.490197981E0,-1.334202290E-2,-1.700985432E-2,-8.975791931E-2
9.510197714E0,1.583135128E-2,-8.783936501E-3,-8.832645416E-2
9.520197714E0,1.805357635E-2,2.177286148E-2,-9.827423096E-2
9.530197714E0,4.151994735E-2,1.086366177E-2,-8.420372009E-2
9.540197714E0,3.570959717E-2,-1.024162769E-2,-6.767368317E-2
9.550197714E0,3.683570027E-2,-7.164597511E-3,-4.876708984E-2
9.560197714E0,3.552160412E-2,1.055604219E-2,-5.861377716E-2
9.570197714E0,4.136868566E-2,-3.429412842E-2,-3.251647949E-2
9.580197714E0,1.360074431E-2,-2.838045359E-2,-4.716014862E-2
9.590197714E0,7.633127272E-3,-2.216297388E-2,-4.507255554E-2
9.600197714E0,-1.002436131E-2,-2.547395229E-2,-7.172012329E-2
9.610197714E0,-8.466392756E-4,-4.547703266E-2,-7.682991028E-2
9.620197980E0,8.648082614E-3,-6.040304899E-2,-6.520748138E-2
9.630197980E0,9.060278535E-3,-4.880017042E-2,-7.754898071E-2
9.640198246E0,2.135792375E-2,-6.822264194E-2,-4.919338226E-2
9.650198246E0,7.160454988E-3,-3.978198767E-2,-8.308029175E-2
9.660198246E0,2.216665447E-2,-6.145107746E-2,-8.107185364E-2
9.680197979E0,2.528885007E-2,-5.450910330E-2,-6.986045837E-2
9.690197979E0,3.258170187E-2,-3.780835867E-2,-8.939075470E-2
9.700197979E0,2.297402918E-2,-4.035866261E-2,-8.975505829E-2
9.710197979E0,2.274653316E-2,-2.840822935E-2,-8.773040771E-2
9.720197979E0,2.226439118E-2,-2.368748188E-2,-9.527206421E-2
9.730198212E0,-2.230942249E-3,-2.883440256E-2,-5.490016937E-2
9.740198212E0,5.257979035E-3,-2.222096920E-2,-4.085826874E-2
9.750198212E0,7.992833853E-3,-5.636686087E-2,-3.159713745E-2
9.760198212E0,1.795300841E-2,-4.537731409E-2,-3.427696228E-2
9.770198212E0,2.779893577E-2,-5.804747343E-2,-4.415893555E-2
9.790198012E0,2.154439688E-3,-2.903896570E-2,-8.061885834E-2
9.800198012E0,3.337711096E-3,-3.281128407E-2,-6.172370911E-2
9.810198012E0,-4.991158843E-3,-1.023662090E-2,-4.522323608E-2
9.820198012E0,-1.102873683E-2,-1.451677084E-2,-6.937980652E-2
9.830198012E0,7.300496101E-3,-2.884644270E-2,-1.198396683E-1
9.840198012E0,2.581530809E-2,2.603131533E-2,-1.583137512E-1
9.850198012E0,6.136378646E-2,3.829300404E-2,-9.866905212E-2
9.860198012E0,4.988110065E-2,2.343451977E-2,6.556510925E-3
9.870198278E0,1.764218509E-2,-4.694074392E-2,1.357889175E-1
9.880198278E0,1.900248230E-2,-7.247018814E-2,9.508419037E-2
9.890198278E0,3.056269884E-2,-8.932757378E-2,-4.132747650E-2
9.900198278E0,1.392963529E-2,-8.691704273E-2,-5.325698853E-2
9.910198278E0,-2.088114619E-3,-2.119827271E-2,-2.937126160E-2
9.930198011E0,-4.947033525E-2,4.177957773E-2,-1.516876221E-1
9.950197744E0,-3.266105056E-2,5.863875151E-2,-2.383108139E-1
9.960197744E0,2.826735377E-3,5.188083649E-2,-2.409629822E-1
9.970197744E0,4.911516607E-2,2.720063925E-2,-1.333684921E-1
9.980197977E0,6.050261855E-2,-1.016360521E-2,-5.681705475E-2
9.990197977E0,3.270079195E-2,-2.865707874E-2,3.174400330E-2
1.000019798E1,2.625109255E-2,-9.286481142E-2,3.652858734E-2
1.001019798E1,2.929846942E-2,-7.512021065E-2,6.521511078E-2
1.002019798E1,1.424506307E-3,-8.878344297E-2,4.364109039E-2
1.004019774E1,-9.124606848E-3,-3.924286366E-2,5.789566040E-2
1.005019774E1,-1.352119446E-2,-1.763939857E-2,5.788421631E-2
1.006019774E1,-1.258735359E-2,-3.296923637E-2,9.385490417E-2
1.007019774E1,-6.200015545E-3,-1.427412033E-3,1.658048630E-1
1.008019801E1,9.875893593E-4,-1.813971996E-2,1.902608871E-1
1.009019801E1,-1.027129591E-2,1.447856426E-3,2.675437927E-1
1.010019801E1,1.580730081E-2,-2.577263117E-2,2.876482010E-1
1.011019801E1,2.290263772E-3,-7.676482201E-4,3.031997681E-1
1.012019828E1,6.582304835E-3,-1.703560352E-2,2.807064056E-1
1.013019828E1,3.803433478E-2,-4.807770252E-3,2.512845993E-1
1.014019828E1,3.418700397E-2,-2.349120378E-2,2.173128128E-1
1.015019828E1,3.299967945E-2,-2.711737156E-2,2.481994629E-1
1.016019828E1,3.937502205E-2,-3.430545330E-3,3.056249619E-1
1.018019801E1,-2.079998702E-2,1.295024157E-2,4.118328094E-1
1.019019801E1,-3.895147890E-2,4.161000252E-3,3.171606064E-1
1.020019801E1,-5.389409885E-2,-1.439201832E-2,1.726207733E-1
1.021019801E1,-3.964010254E-2,-1.046383381E-2,4.516124725E-2
1.022019801E1,-2.787186578E-2,-2.241492271E-3,-1.107950211E-1
1.023019824E1,-1.409258693E-2,1.849353313E-2,-1.684751511E-1
1.024019824E1,-1.045088843E-2,7.634282112E-3,-3.602962494E-1
1.025019824E1,-2.407526597E-3,6.936073303E-3,-3.464393616E-1
1.026019824E1,3.056647256E-3,5.110383034E-3,-5.391445160E-1
1.027019824E1,-5.629577115E-2,-3.494083881E-2,-3.900356293E-1
1.029019801E1,-8.949869871E-2,-5.531835556E-2,-4.455232620E-1
1.030019801E1,-5.769816786E-2,-7.201707363E-2,-5.519399643E-1
1.031019801E1,1.485497598E-2,1.508235931E-3,-6.134071350E-1
1.032019801E1,-1.828181744E-2,-3.630316257E-2,-6.777534485E-1
1.033019801E1,-4.397816956E-4,-9.052157402E-3,-6.590204239E-1
1.034019801E1,1.568870991E-2,2.381110191E-2,-6.335496902E-1
1.036019777E1,-1.769039780E-2,1.257125139E-1,-4.806804657E-1
1.037019804E1,2.146611363E-2,1.687313318E-1,-4.128456116E-1
1.039019777E1,4.532193020E-2,1.213897467E-1,-4.134054184E-1
1.040019777E1,5.024049804E-2,6.223523617E-2,-4.363155365E-1
1.041019777E1,5.957571045E-2,2.000665665E-2,-4.855747223E-1
1.043019750E1,5.628574640E-2,-4.880666733E-2,-4.241151810E-1
1.044019750E1,3.432553634E-2,-3.625833988E-2,-3.182764053E-1
1.045019750E1,2.917615324E-2,-2.011966705E-2,-3.299713135E-2
1.046019750E1,-6.783347577E-3,2.942895889E-2,1.685276031E-1
1.047019750E1,-2.559573576E-2,3.835976124E-2,3.823308945E-1
1.048019774E1,-4.433809966E-2,4.782104492E-2,4.745597839E-1
1.049019774E1,-4.721104354E-2,-6.622672081E-3,5.582704544E-1
1.050019774E1,-3.341893852E-2,-7.155406475E-2,5.923891068E-1
1.051019774E1,-5.007684976E-2,-1.438149214E-1,6.630229950E-1
1.052019774E1,-4.652588814E-2,-1.487218142E-1,7.030935287E-1
1.054019750E1,-2.955289558E-3,-8.913874626E-2,6.962480545E-1
1.055019750E1,2.633805387E-2,-5.259013176E-2,5.415496826E-1
1.056019750E1,8.056543767E-3,-3.538942337E-2,4.064311981E-1
1.057019750E1,-8.407160640E-3,-5.617213249E-2,2.669057846E-1
1.058019750E1,1.317382976E-2,-9.138917923E-2,2.304439545E-1
1.059019750E1,-5.167847127E-2,-1.191034317E-1,2.467164993E-1
1.060019750E1,-5.893025547E-2,-9.114384651E-2,2.582159042E-1
1.061019750E1,-7.022084296E-2,-5.795359612E-2,2.122993469E-1
1.062019777E1,-4.716501385E-2,-5.355930328E-2,1.305856705E-1
1.063019777E1,-1.891208440E-2,-1.509940624E-2,-7.320785522E-2
1.064019777E1,-9.339570999E-3,-2.811670303E-2,-1.888751984E-1
1.065019800E1,2.690487355E-2,3.080463409E-2,-3.076334000E-1
1.066019800E1,3.926169127E-2,4.603850842E-2,-3.364124298E-1
1.068019774E1,2.904714644E-2,2.655017376E-2,-5.694389343E-1
1.069019774E1,1.750540733E-2,2.890467644E-3,-8.070974350E-1
1.070019774E1,4.070091248E-2,-3.715753555E-4,-8.541946411E-1
1.071019774E1,7.548734546E-3,-1.670205593E-2,-8.495883942E-1
1.072019774E1,1.707732677E-3,5.224943161E-3,-7.814941406E-1
1.073019797E1,-1.759707928E-2,5.768549442E-2,-6.538400650E-1
1.074019797E1,-1.052607596E-2,1.024647951E-1,-5.117740631E-1
1.075019797E1,1.866252720E-2,1.494603157E-1,-2.448406219E-1
1.076019797E1,2.881434560E-2,1.778991222E-1,-1.329002380E-1
1.077019797E1,3.927963972E-2,2.033514977E-1,-7.758998871E-2
1.079019774E1,7.530881464E-2,1.507755518E-1,-4.722070694E-1
1.080019774E1,3.027386963E-2,1.137397289E-1,-6.235580444E-1
1.081019774E1,-1.130042970E-2,2.702689171E-2,-6.555652618E-1
1.082019774E1,-2.648422122E-2,4.975676537E-3,-5.852518082E-1
1.083019774E1,-4.111057520E-2,-4.630875587E-2,-4.077672958E-1
1.084019774E1,-6.126202643E-2,-5.676472187E-2,-2.713136673E-1
1.085019774E1,-8.562064171E-2,-9.833204746E-2,-8.936500549E-2
1.086019774E1,-1.151229888E-1,-1.257824898E-1,4.503536224E-2
1.087019800E1,-1.091273278E-1,-1.173282862E-1,1.800403595E-1
1.088019800E1,-7.488621771E-2,-1.370711327E-1,2.180328369E-1
1.089019800E1,-3.596912324E-2,-1.241875887E-1,2.184705734E-1
1.090019800E1,2.154350281E-3,-1.035418510E-1,1.380958557E-1
1.091019800E1,4.045018554E-2,-9.669315815E-2,-6.623268127E-3
1.093019773E1,7.745712250E-2,-6.164169312E-2,-1.121549606E-1
1.094019773E1,7.153754681E-2,-5.635464191E-2,-1.045989990E-1
1.095019773E1,1.405277848E-2,-4.465973377E-2,-9.793758392E-2
1.096019773E1,4.576817155E-3,-1.810634136E-2,-7.973575592E-2
1.097019773E1,-6.268554926E-2,-1.925230026E-3,-2.348995209E-2
1.098019797E1,-9.687724710E-2,4.292249680E-3,-7.581710815E-4
1.099019797E1,-8.754396439E-2,-1.261126995E-2,-6.164360046E-2
1.100019797E1,-7.663737237E-2,-1.028454304E-2,-1.629343033E-1
1.101019797E1,-4.412259161E-2,-9.815216064E-3,-1.969347000E-1
1.102019797E1,2.036799490E-2,6.659269333E-3,-1.589918137E-1
1.104019773E1,5.657127500E-2,3.498876095E-2,-1.931219101E-1
1.105019773E1,1.141429916E-1,3.990685940E-2,-2.293224335E-1
1.106019773E1,1.134242862E-1,7.169699669E-2,-2.009191513E-1
1.107019773E1,7.990958542E-2,7.557713985E-2,-1.295118332E-1
1.108019773E1,6.303191185E-2,6.572759151E-2,-9.649085999E-2
1.109019773E1,3.566719592E-2,5.803990364E-2,-8.260726929E-2
1.110019773E1,-2.658441663E-3,3.519165516E-2,-5.667495728E-2
1.111019773E1,-2.848078310E-2,-1.323080063E-2,-7.845115662E-2
1.112019800E1,-1.910722256E-2,-3.613698483E-2,-6.901073456E-2
1.113019800E1,-4.084639251E-2,-5.213832855E-2,-1.098136902E-1
1.114019800E1,-4.083433747E-2,-6.555235386E-2,-1.099357605E-1
1.115019800E1,-4.985417426E-2,-8.566045761E-2,-1.220798492E-1
1.116019800E1,-4.880544543E-2,-7.641053200E-2,-1.366891861E-1
1.118019773E1,-4.891389608E-2,-2.985560894E-2,-1.637258530E-1
1.119019773E1,-2.750314772E-2,-2.093160152E-2,-1.139278412E-1
1.120019773E1,-3.105984628E-2,-9.556293488E-3,-9.767341614E-2
1.121019773E1,-1.793205738E-3,-5.598783493E-3,-1.412572861E-1
1.122019773E1,-2.588769794E-2,1.212489605E-2,-7.225036621E-2
1.123019796E1,2.448350191E-2,-6.776213646E-3,-1.444072723E-1
1.124019796E1,3.140325844E-2,4.049539566E-4,-1.590766907E-1
1.125019796E1,4.064372182E-2,-2.378463745E-2,-2.287836075E-1
1.126019797E1,4.762855172E-2,-3.804683685E-3,-1.956691742E-1
1.127019797E1,3.509126604E-2,9.112119675E-3,-1.817302704E-1
1.128019800E1,1.774962246E-2,9.765028954E-3,-1.438121796E-1
1.129019800E1,2.872094512E-3,3.145766258E-2,-1.465311050E-1
1.130019800E1,-2.248808742E-3,1.740336418E-3,-8.206748962E-2
1.131019800E1,-2.608795464E-2,7.133603096E-3,-4.383277893E-2
1.132019800E1,-2.069696784E-2,-4.729509354E-3,-6.059360504E-2
1.133019800E1,-7.846146822E-3,-3.830385208E-2,-7.014656067E-2
1.134019800E1,1.902428269E-2,-3.815734386E-2,-8.691310883E-2
1.135019800E1,1.889027655E-2,-3.751826286E-2,-8.699417114E-2
1.136019800E1,2.807560563E-2,-5.735921860E-2,-7.284641266E-2
1.137019826E1,2.194383740E-2,-5.263197422E-2,-1.138620377E-1
1.138019826E1,3.871530294E-3,-7.853853703E-2,-1.238107681E-1
1.139019826E1,1.959668100E-2,-2.214109898E-2,-1.290760040E-1
1.140019826E1,1.380570233E-2,-5.437648296E-2,-7.208251953E-2
1.141019826E1,-9.020596743E-3,-5.435180664E-2,6.316184998E-3
1.143019800E1,-2.963587642E-3,6.740689278E-3,-1.049013138E-1
1.144019800E1,3.091511130E-2,-1.697766781E-2,-1.507444382E-1
1.145019800E1,2.901920676E-2,-1.396465302E-2,-1.511421204E-1
1.146019800E1,2.551412582E-2,-1.425242424E-2,7.335472107E-2
1.147019800E1,1.751548052E-2,-5.275094509E-2,1.206769943E-1
1.148019823E1,2.154670656E-2,-6.807065010E-2,7.711219788E-2
1.149019823E1,-1.846039295E-2,-1.074451208E-1,-3.560256958E-2
1.150019823E1,-1.523691416E-2,-8.705604076E-2,-8.126735687E-2
1.151019823E1,-6.424601376E-2,-4.204595089E-2,-1.270036697E-1
1.152019823E1,-5.661851168E-2,-8.690357208E-4,-1.081790924E-1
1.154019800E1,5.183771253E-3,1.143397093E-1,-5.151557922E-2
1.155019800E1,6.597230583E-2,1.314442158E-1,-1.188106537E-1
1.156019800E1,4.519039392E-2,1.153454781E-1,-1.571340561E-1
1.157019800E1,2.442125976E-2,3.255963326E-2,-1.736717224E-1
1.159019773E1,-2.227734029E-2,-1.082794666E-1,-1.398525238E-1
1.160019773E1,-4.537260532E-2,-1.474474669E-1,-1.232547760E-1
1.161019773E1,-6.160618365E-2,-1.752485037E-1,-7.095909119E-2
1.162019800E1,-5.882598460E-2,-1.988732219E-1,-4.760169983E-2
1.163019800E1,-4.691106081E-2,-1.206032038E-1,-4.595375061E-2
1.164019800E1,-3.548859060E-2,-9.042298794E-2,-3.470897675E-2
1.165019800E1,-9.901866317E-3,-1.771712303E-2,-3.776645660E-2
1.166019800E1,4.706782103E-2,3.537535667E-3,-3.349781036E-2
1.168019773E1,6.197021902E-2,3.537726402E-2,-2.936935425E-2
1.169019773E1,4.191209376E-2,7.407426834E-3,-6.059646606E-2
1.170019773E1,1.668591797E-2,-1.087307930E-3,-2.961921692E-2
1.171019773E1,-8.227214217E-3,9.429216385E-3,-1.013755798E-3
1.172019773E1,5.887672305E-3,3.401076794E-2,1.088142395E-2
1.173019796E1,8.032009006E-3,2.505064011E-3,-1.541709900E-2
1.174019796E1,2.175955474E-2,2.032387257E-2,-6.795215607E-2
1.175019796E1,1.363378763E-2,-2.221477032E-2,-9.888648987E-2
1.176019796E1,-6.970420480E-3,7.581114769E-3,-1.155242920E-1
1.177019796E1,3.047116101E-2,-1.698541641E-2,-8.913326263E-2
1.179019773E1,2.976432443E-2,-2.679383755E-2,-8.437633514E-2
1.180019773E1,3.247956932E-2,-2.256274223E-3,-1.060304642E-1
1.181019773E1,2.077420056E-2,7.771968842E-3,-1.156978607E-1
1.182019773E1,2.598316967E-2,7.861137390E-3,-1.229248047E-1
1.183019773E1,9.883999825E-3,-4.199147224E-3,-1.229457855E-1
1.184019773E1,-5.959570408E-3,-1.135087013E-2,-1.301584244E-1
1.185019773E1,-1.903298497E-2,-2.314698696E-2,-8.949565887E-2
1.186019773E1,-5.204424262E-3,-4.584944248E-2,-5.373191833E-2
1.187019799E1,-1.059274375E-2,-5.178248882E-2,-1.797008514E-2
1.188019799E1,-1.308873296E-2,-7.425761223E-2,-3.010845184E-2
1.189019799E1,-2.720376849E-2,-7.976508141E-2,-7.338809967E-2
1.190019799E1,-2.887329459E-2,-7.537078857E-2,-8.557033539E-2
1.191019799E1,-4.452262819E-2,-4.182887077E-2,-1.384944916E-1
1.193019773E1,-1.017212868E-2,-8.212804794E-3,-1.461658478E-1
1.194019773E1,-1.137629151E-2,3.004240990E-2,-1.248569489E-1
1.195019773E1,1.106609404E-2,4.143881798E-2,-8.194732666E-2
1.196019773E1,2.325867116E-2,4.960489273E-2,-7.247543335E-2
1.197019773E1,8.559539914E-3,4.247140884E-2,-5.572795868E-2
1.198019793E1,2.023512125E-2,1.291060448E-2,-7.000637054E-2
1.199019793E1,7.710114121E-3,1.674306393E-2,-7.948684692E-2
1.200019793E1,2.161222696E-2,-1.285195351E-3,-8.893108368E-2
1.201019793E1,1.616089046E-2,-6.824612617E-3,-7.688808441E-2
1.202019793E1,9.926557541E-4,7.155895233E-3,-5.770587921E-2
1.204019769E1,2.823328972E-2,-7.179021835E-3,-6.491851807E-2
1.205019769E1,-1.833856106E-3,-1.656103134E-2,-7.454109192E-2
1.206019769E1,3.050535917E-2,-1.867651939E-2,-9.853458405E-2
1.207019769E1,2.421590686E-2,-4.954564571E-2,-1.201362610E-1
1.208019769E1,-3.615558147E-3,-2.725052834E-2,-1.274280548E-1
1.209019769E1,1.460300386E-2,-3.863549232E-2,-1.514511108E-1
1.210019769E1,2.256831527E-2,-3.953766823E-2,-1.516437531E-1
1.211019769E1,1.630997658E-2,-3.045845032E-2,-1.303300858E-1
1.212019796E1,2.178031206E-2,-2.572059631E-2,-1.473779678E-1
1.213019796E1,2.284306288E-2,-3.303956985E-2,-1.668024063E-1
1.214019796E1,1.360166073E-2,-3.022098541E-2,-1.647520065E-1
1.215019796E1,-3.161624074E-3,-1.500725746E-2,-1.890878677E-1
1.216019796E1,1.856379211E-2,-9.145617485E-3,-1.296472549E-1
1.218019769E1,-3.174343705E-2,-3.716361523E-2,-5.636119843E-2
1.219019769E1,-4.168976843E-2,-2.436363697E-2,-7.351112366E-2
1.220019769E1,1.515701413E-3,3.810155392E-2,-6.185531616E-2
1.221019769E1,3.023371100E-2,3.488147259E-2,4.089069366E-2
1.222019769E1,2.283597738E-2,1.214373112E-2,1.843757629E-1
1.223019792E1,1.018837094E-3,-3.243732452E-2,2.225484848E-1
1.224019792E1,2.976948768E-2,-4.941058159E-2,2.249326706E-1
1.225019792E1,1.504115015E-2,-9.192216396E-2,6.707382202E-2
1.226019792E1,-9.111836553E-3,-1.012047529E-1,3.614044189E-2
1.227019792E1,2.499449998E-2,-6.125974655E-2,-1.361837387E-1
1.229019772E1,3.473885357E-3,4.969942570E-2,-2.083864212E-1
1.230019799E1,1.121720672E-2,8.928346634E-2,-1.154003143E-1
1.231019799E1,5.633287877E-2,1.211266518E-1,-9.441566467E-2
1.232019799E1,7.949174941E-2,1.016925573E-1,-8.073139191E-2
1.233019799E1,5.841511488E-2,6.244432926E-2,-7.174301147E-2
1.234019799E1,3.197124600E-2,5.019783974E-3,-3.627014160E-2
1.235019799E1,-1.651245356E-2,-7.933503389E-2,-4.840755463E-2
1.236019799E1,-3.343005478E-2,-1.389044523E-1,-5.562305450E-2
1.237019826E1,-3.038878739E-2,-1.590192318E-1,-6.512451172E-2
1.238019826E1,-2.354922891E-2,-1.268543601E-1,-7.459735870E-2
1.239019826E1,-2.180202305E-2,-6.614291668E-2,-1.032085419E-1
1.240019826E1,-8.311271667E-4,-2.907371521E-2,-1.007251740E-1
1.241019826E1,4.699420184E-2,3.260540962E-2,-9.830379486E-2
1.243019799E1,4.947939515E-2,4.580116272E-2,-8.170318604E-2
1.244019799E1,6.094256043E-2,4.648411274E-2,-8.178138733E-2
1.245019799E1,3.900476545E-2,1.587748528E-2,-9.620666504E-2
1.246019799E1,3.161737323E-2,-3.016591072E-3,-8.187103271E-2
1.247019799E1,-1.623888314E-2,1.265525818E-2,-6.742191315E-2
1.248019822E1,1.600059122E-2,1.378285885E-2,-3.857421875E-2
1.249019822E1,1.960481703E-2,3.162395954E-2,-3.366184235E-2
1.250019822E1,6.091520190E-3,1.262843609E-2,-8.132934570E-2
1.251019822E1,1.170177758E-2,5.323171616E-3,-1.169948578E-1
1.252019822E1,-9.056344628E-3,-1.132416725E-2,-1.048021317E-1
1.254019799E1,-1.846030354E-3,-3.050982952E-2,-6.865882874E-2
1.255019799E1,-5.581758916E-3,-1.403212547E-2,-9.737491608E-2
1.256019799E1,2.977006137E-3,-1.924455166E-2,-1.141014099E-1
1.257019799E1,9.113043547E-3,2.038955688E-3,-1.260557175E-1
1.258019799E1,3.464057297E-2,1.889300346E-2,-1.332578659E-1
1.259019799E1,3.831024468E-2,2.344083786E-2,-1.045141220E-1
1.261019772E1,1.117170602E-2,-1.317238808E-2,-5.898380280E-2
1.262019799E1,2.151235938E-2,-2.988946438E-2,-4.464054108E-2
1.263019799E1,1.034479588E-2,-4.842746258E-2,-4.232883453E-2
1.264019799E1,-2.228637040E-2,-7.387757301E-2,-2.567863464E-2
1.265019799E1,-3.263362497E-2,-7.954645157E-2,-5.457782745E-2
1.266019799E1,-3.258902580E-2,-6.820607185E-2,-5.476474762E-2
1.268019772E1,-1.669158041E-2,-2.624917030E-2,-1.317491531E-1
1.269019772E1,-6.290115416E-3,3.934502602E-3,-1.702013016E-1
1.270019772E1,-2.258277684E-2,1.920735836E-2,-1.535329819E-1
1.271019772E1,6.403923035E-3,3.643476963E-2,-1.607618332E-1
1.272019772E1,-3.359928727E-3,3.647685051E-2,-1.272497177E-1
1.273019795E1,2.993293107E-2,4.130816460E-2,-9.852600098E-2
1.274019795E1,2.208618820E-2,4.326653481E-2,-8.172798157E-2
1.275019795E1,3.548853844E-2,2.795922756E-2,-6.966686249E-2
1.276019795E1,4.366288334E-2,2.882122993E-3,-6.716823578E-2
1.277019795E1,3.470846266E-2,1.736760139E-3,-6.466960907E-2
1.279019772E1,3.059568256E-2,-2.393484116E-2,-7.410430908E-2
1.280019772E1,2.193003893E-3,-4.313814640E-2,-9.566688538E-2
1.281019772E1,2.649463713E-3,-1.602029800E-2,-9.337234497E-2
1.282019772E1,3.380462527E-3,-1.017343998E-2,-9.828758240E-2
1.283019772E1,2.013169229E-3,-3.022921085E-2,-1.104288101E-1
1.284019772E1,-1.870577782E-2,-7.224678993E-3,-1.225671768E-1
1.285019772E1,-5.790881813E-3,-4.910826683E-2,-1.322832108E-1
1.286019772E1,2.439521253E-3,-2.580904961E-2,-1.683921814E-1
1.287019798E1,1.697725058E-2,-3.349530697E-2,-1.518487930E-1
1.288019798E1,2.662071958E-2,-1.430761814E-2,-1.377563477E-1
1.289019798E1,1.932379603E-2,5.659461021E-3,-1.093807220E-1
1.290019798E1,7.395654917E-3,1.075959206E-2,-8.813285828E-2
1.291019798E1,2.658374608E-3,-1.112592220E-2,-5.484485626E-2
1.293019772E1,1.161769778E-2,-3.144490719E-2,-7.680511475E-2
1.294019772E1,1.342133805E-2,-4.177939892E-2,-7.938671112E-2
1.295019772E1,-1.093915477E-2,-3.284823895E-2,-8.437252045E-2
1.296019772E1,1.310172305E-2,-3.068172932E-2,-5.587863922E-2
1.297019772E1,-1.804586872E-2,-2.583229542E-2,-5.375003815E-2
1.298019795E1,-5.853831768E-3,-2.373123169E-2,-5.158329010E-2
1.299019795E1,1.849293709E-2,-7.757723331E-3,-1.044311523E-1
1.300019795E1,3.556512669E-2,4.146474600E-2,-1.548557281E-1
1.301019795E1,6.011699513E-2,5.666375160E-2,-8.551788330E-2
1.302019795E1,4.815617204E-2,3.091347218E-2,1.496887207E-2
1.304019772E1,1.074121147E-2,-7.501846552E-2,3.894424438E-2
1.305019772E1,1.745025255E-2,-1.054913402E-1,-7.820320129E-2
1.306019772E1,1.476650126E-2,-1.135741472E-1,-1.307935715E-1
1.307019772E1,-4.492618144E-3,-2.162218094E-2,-1.716022491E-1
1.308019772E1,-2.338682488E-2,-5.353510380E-3,-1.885614395E-1
1.309019772E1,-5.698563531E-3,7.921618223E-2,-1.960706711E-1
1.310019772E1,-2.107775025E-2,8.779132366E-2,-1.916685104E-1
1.311019772E1,2.948218584E-2,8.952224255E-2,-1.705360413E-1
1.312019802E1,5.433829129E-2,1.071100831E-1,-1.277618408E-1
1.313019802E1,5.185789615E-2,1.950949430E-2,-6.082344055E-2
1.314019832E1,5.196988583E-2,-1.531684399E-2,-3.507518768E-2
1.315019832E1,3.436678275E-2,-8.966940641E-2,-9.203910828E-3
1.316019832E1,-2.215494215E-2,-1.128935814E-1,-3.585243225E-2
1.317019835E1,9.401267394E-3,-1.396187544E-1,-4.563236237E-2
1.318019835E1,-7.422454655E-5,-1.289058328E-1,-5.771923065E-2
1.319019835E1,-1.454423368E-2,-7.077836990E-2,-9.130859375E-2
1.320019835E1,-4.971818998E-4,-4.616701603E-2,-1.679925919E-1
1.321019835E1,-3.204344772E-3,-4.520136118E-2,-1.680908203E-1
1.322019835E1,5.914964247E-3,-2.004951239E-2,-1.849727631E-1
1.323019862E1,5.830769241E-2,7.554471493E-3,-5.102443695E-2
1.324019862E1,2.462394349E-2,-3.891175985E-2,-1.684789658E-1
1.325019862E1,3.622561693E-2,-1.452475786E-2,-1.792335510E-2
1.326019862E1,-9.871111251E-5,-1.943582296E-2,-1.546134949E-1
1.327019862E1,-4.920414183E-3,1.851379871E-2,2.954101562E-2
1.329019838E1,2.031233720E-2,1.669281721E-2,5.319786072E-2
1.330019838E1,1.587753370E-2,1.050984859E-2,-9.054851532E-2
1.331019838E1,1.592439413E-2,-1.312035322E-2,-1.360654831E-1
1.332019838E1,4.033593461E-3,-7.650256157E-3,-1.002149582E-1
1.333019838E1,2.100250684E-2,-1.374667883E-2,-7.876873016E-2
1.334019838E1,2.016056329E-3,-2.449285984E-2,-8.127689362E-2
1.335019838E1,1.422797889E-2,-5.951642990E-3,-1.077795029E-1
1.336019838E1,1.686917618E-2,-3.098827600E-2,-1.174764633E-1
1.337019868E1,2.661012672E-2,-1.479530334E-2,-1.344060898E-1
1.338019868E1,4.575904459E-2,-1.032131910E-2,-1.226272583E-1
1.339019868E1,2.831720188E-2,-3.840267658E-3,-8.686733246E-2
1.340019868E1,4.433863238E-2,-1.893639565E-2,-5.349636078E-2
1.341019868E1,1.939330995E-2,-4.831504822E-2,-2.013206482E-2
1.343019838E1,2.122803777E-2,-5.660241842E-2,-1.567173004E-2
1.345019808E1,5.302332342E-3,-5.758720636E-2,-9.262657166E-2
1.346019808E1,-3.230646998E-2,-5.053067207E-2,-1.215629578E-1
1.348019798E1,-2.517748624E-3,-2.637028694E-2,-1.435737610E-1
1.349019798E1,6.488073617E-3,-3.573113680E-2,-1.294498444E-1
1.350019798E1,-1.404624432E-3,-6.396532059E-3,-1.201486588E-1
1.351019798E1,4.600953311E-3,1.132607460E-3,-8.448505402E-2
1.352019798E1,3.447490558E-2,2.030467987E-2,-7.991313934E-2
1.354019772E1,9.363394231E-3,1.824378967E-2,-5.380821228E-2
1.355019772E1,1.512334123E-2,2.141535282E-2,-6.105422974E-2
1.356019772E1,3.055467829E-2,-1.184147596E-2,-6.825256348E-2
1.357019772E1,1.226649061E-2,-6.722807884E-3,-7.306194305E-2
1.358019772E1,4.674080759E-2,-6.187856197E-3,-7.789039612E-2
1.359019772E1,1.363137364E-2,-7.638335228E-3,-1.066951752E-1
1.360019772E1,-7.493063807E-3,-1.791417599E-3,-8.762454987E-2
1.361019772E1,-1.967079937E-3,-2.459210157E-2,-1.020832062E-1
1.362019798E1,3.776252270E-3,-2.314758301E-2,-8.784008026E-2
1.363019798E1,-1.453437284E-2,-2.167284489E-2,-8.078193665E-2
1.364019798E1,-3.790274262E-3,-1.539707184E-2,-7.133197784E-2
1.365019798E1,-1.019962132E-2,-3.792071342E-2,-8.581352234E-2
1.366019798E1,1.744572073E-2,-4.155147076E-2,-9.069919586E-2
1.368019768E1,5.081087351E-3,-1.046842337E-2,-1.052560806E-1
1.369019768E1,2.078524977E-2,-1.869732141E-2,-1.245241165E-1
1.370019768E1,3.607647121E-2,-1.475661993E-2,-1.318340302E-1
1.371019768E1,1.297232509E-2,-7.832229137E-3,-1.296205521E-1
1.372019768E1,1.110324264E-2,-5.169093609E-3,-1.298446655E-1
1.373019791E1,-7.856488228E-3,-4.356324673E-3,-9.659481049E-2
1.374019791E1,1.137109846E-2,-1.854860783E-2,-8.962059021E-2
1.375019791E1,4.258655012E-3,-1.343488693E-2,-7.068729401E-2
1.376019791E1,4.275244474E-2,-3.022134304E-2,-5.890750885E-2
1.377019791E1,3.038275242E-2,-3.006505966E-2,-8.544158936E-2
1.379019771E1,2.415248007E-2,-2.994918823E-2,-9.299468994E-2
1.380019771E1,1.382061839E-2,-3.189444542E-2,-6.687450409E-2
1.381019771E1,-3.694188595E-2,-2.415871620E-2,-3.118896484E-2
1.382019771E1,-1.313538104E-2,-3.145641088E-2,-6.727218628E-2
1.383019771E1,-2.201416343E-2,1.616358757E-3,-1.033363342E-1
1.384019771E1,1.356348395E-3,1.773703098E-2,-1.274242401E-1
1.385019771E1,3.920035809E-2,4.075050354E-2,-3.656673431E-2
1.386019771E1,4.943305999E-2,1.216411591E-3,7.827377319E-2
1.387019798E1,8.084841073E-3,-5.296534300E-2,1.476669312E-1
1.388019798E1,2.154023945E-2,-9.847658873E-2,2.560424805E-2
1.389019798E1,4.273448884E-2,-1.214193702E-1,-1.011314392E-1
1.390019798E1,1.370786130E-2,-7.571017742E-2,-1.274528503E-1
1.391019798E1,6.690368056E-3,-6.729125977E-3,-1.395626068E-1
1.393019771E1,-3.044093400E-2,5.413186550E-2,-2.022619247E-1
1.394019771E1,-3.386632353E-2,9.157234430E-2,-2.241315842E-1
1.395019771E1,-2.455741167E-3,7.601517439E-2,-2.052898407E-1
1.396019771E1,2.680434287E-2,5.964970589E-2,-1.456775665E-1
1.397019771E1,3.144186735E-2,3.097534180E-3,-8.350372314E-2
1.398019791E1,2.329464257E-2,-4.186224937E-2,2.655982971E-3
1.399019791E1,2.909874916E-2,-8.912366629E-2,7.411003113E-3
1.400019791E1,1.508951187E-2,-8.999538422E-2,1.277923584E-4
1.401019791E1,3.924396634E-2,-8.079892397E-2,-4.549980164E-2
1.402019791E1,-1.116549969E-2,-9.759491682E-2,-5.763339996E-2
1.404019768E1,1.583400369E-2,-3.162980080E-2,-9.878540039E-2
1.405019768E1,1.122975349E-2,-1.656818390E-2,-1.133728027E-1
1.406019768E1,2.046555281E-3,-1.137977839E-2,-9.681606293E-2
1.407019768E1,1.702365279E-2,-3.273630142E-2,-1.113662720E-1
1.408019768E1,1.764583588E-2,-1.588267088E-2,-9.957218170E-2
1.409019768E1,-1.014590263E-3,-3.537243605E-2,-1.092872620E-1
1.410019768E1,-2.816468477E-3,2.840161324E-3,-8.550453186E-2
1.411019768E1,1.026457548E-2,1.952666044E-2,-4.976081848E-2
1.412019795E1,-5.216151476E-4,1.132333279E-2,-2.351665497E-2
1.413019794E1,7.516518235E-3,1.030570269E-2,-3.318023682E-2
1.414019794E1,2.740769088E-2,-1.070380211E-3,-6.911373138E-2
1.415019794E1,3.518214822E-2,-1.763457060E-2,-7.388782501E-2
1.416019794E1,7.169678807E-3,-5.285799503E-3,-5.234146118E-2
1.418019768E1,2.661569417E-2,-9.280860424E-3,-6.912899017E-2
1.419019768E1,3.659874201E-3,-6.794810295E-3,-1.026315689E-1
1.420019768E1,-9.271830320E-3,-1.393854618E-2,-1.433181763E-1
1.421019768E1,9.372085333E-3,-8.821010590E-3,-2.223453522E-1
1.423013101E1,1.141461730E-2,-3.255844116E-3,-2.008113861E-1
1.425006434E1,8.880287409E-3,-2.674204111E-2,-1.193990707E-1
1.426999767E1,4.444718361E-2,-5.209881067E-2,-9.309196472E-2
1.428993081E1,1.154805720E-2,-5.999577045E-2,-1.075143814E-1
1.430986414E1,-2.669639885E-2,-3.545731306E-2,-1.436233521E-1
1.432979747E1,-4.646642506E-2,-5.591094494E-3,-1.391057968E-1
1.434973107E1,6.206855178E-3,5.534470081E-3,-1.106910706E-1
1.436966440E1,1.441296935E-2,-1.011914015E-2,-5.108737946E-2
1.438959773E1,2.188739181E-2,-5.102515221E-3,-5.843544006E-2
1.440953107E1,3.632308543E-2,-3.724253178E-2,-5.849838257E-2
1.442946413E1,2.320036292E-3,-1.144313812E-2,-7.295227051E-2
1.444939746E1,-1.674051583E-2,-9.851098061E-3,-4.908943176E-2
1.446933080E1,-1.465266943E-2,-1.596945524E-2,-8.029174805E-2
1.448926413E1,-1.504436135E-3,-1.881480217E-3,-5.874443054E-2
1.450919746E1,1.138281822E-2,-5.032533407E-2,-5.632591248E-2
1.451919746E1,6.890594959E-3,7.718801498E-5,-6.352424622E-2
1.452919746E1,1.215648651E-2,-6.274580956E-4,-4.911327362E-2
1.453919746E1,3.270059824E-4,-8.420765400E-3,-4.188632965E-2
1.454919746E1,5.383044481E-4,-1.806199551E-3,-8.326530457E-3
1.455919746E1,-1.474127173E-3,4.510641098E-3,-1.784324646E-2
1.456919746E1,1.836393774E-2,-2.090239525E-2,8.595466614E-3
1.457919746E1,2.371686697E-2,-2.003812790E-2,-8.054733276E-3
1.458919773E1,3.380894661E-2,-1.942580938E-2,-2.468299866E-2
1.459919773E1,3.163856268E-2,-1.181590557E-2,-6.523323059E-2
1.460919773E1,-1.452326775E-3,-9.410381317E-3,-1.009645462E-1
1.461919773E1,-1.943531632E-2,7.441401482E-3,-1.319293976E-1
1.462919773E1,-1.792754233E-2,5.267739296E-3,-1.317853928E-1
1.464919746E1,-4.771782458E-2,1.909857988E-2,-1.050930023E-1
1.465919746E1,-2.276118100E-2,3.720009327E-2,-1.431865692E-1
1.466919746E1,7.091552019E-3,8.837491274E-2,-2.027912140E-1
1.467919746E1,1.495467126E-2,7.423931360E-2,-1.378316879E-1
1.468919746E1,1.667892933E-2,1.017665863E-2,-1.780700684E-2
1.469919746E1,-9.128943086E-3,-4.402083158E-2,3.757190704E-2
1.470919746E1,-8.393689990E-3,-5.738306046E-2,-5.310630798E-2
1.471919746E1,-9.656548500E-3,-7.076984644E-2,-9.351062775E-2
1.472919746E1,-2.695983648E-2,-2.801066637E-2,-1.196508408E-1
1.473919746E1,-2.700071037E-2,5.850136280E-3,-1.195192337E-1
1.474919746E1,-5.063266307E-2,8.106297255E-2,-1.984567642E-1
1.475919746E1,-5.068711191E-2,7.273644209E-2,-2.391014099E-1
1.476919746E1,-2.821706235E-2,9.182393551E-2,-2.511215210E-1
1.477919746E1,-1.491884887E-2,9.432101250E-2,-2.272481918E-1
1.478919746E1,4.136267304E-2,8.413469791E-2,-1.195154190E-1
1.479919746E1,5.294919014E-3,5.608421564E-2,-7.391452789E-2
1.480919746E1,-2.590090036E-3,-2.556127310E-2,1.486682892E-2
1.481919746E1,-1.488305628E-2,-6.237435341E-2,-1.162624359E-2
1.482919746E1,-1.315853000E-2,-8.623600006E-2,-2.363014221E-2
1.483919772E1,-9.461984038E-3,-9.474676847E-2,-5.705642700E-2
1.484919772E1,-2.079071105E-2,-8.060550690E-2,-8.098888397E-2
1.485919772E1,-2.492073923E-2,-7.737982273E-2,-1.002216339E-1
1.486919772E1,-1.445126534E-2,-3.018891811E-2,-9.080123901E-2
1.487919772E1,-2.321801335E-2,-9.233176708E-3,-8.617782593E-2
1.489919746E1,7.408812642E-3,2.560198307E-3,-6.005382538E-2
1.490919746E1,-1.512214541E-3,9.876906872E-3,-6.007480621E-2
1.491919746E1,-8.057743311E-3,1.856935024E-2,-4.085636139E-2
1.492919746E1,-4.310019314E-2,3.627723455E-2,-5.271720886E-2
1.493919746E1,-5.863492191E-2,2.910494804E-2,-3.816890717E-2
1.494919746E1,-1.026147604E-2,7.175773382E-2,-3.796768188E-2
1.495919746E1,1.182344556E-2,4.614639282E-2,-4.005527496E-2
1.497919742E1,2.320250869E-2,1.759070158E-2,-1.039485931E-1
1.498919742E1,7.951103151E-3,-3.295600414E-3,-9.163951874E-2
1.499919742E1,-2.343088388E-3,3.066658974E-4,-4.825401306E-2
1.500919742E1,-7.410727441E-3,2.316063643E-2,-9.586048126E-2
1.501919742E1,-1.744262129E-2,1.697635651E-2,-1.290712357E-1
1.502919742E1,-2.268292010E-2,6.060957909E-3,-1.503152847E-1
1.503919742E1,-1.869739592E-2,1.453250647E-2,-1.476306915E-1
1.504919742E1,-9.738907218E-3,3.067409992E-2,-1.018943787E-1
1.505919769E1,-1.534492522E-2,4.466074705E-2,-7.054138184E-2
1.506919769E1,-8.850038052E-3,1.268523932E-2,-4.872322083E-2
1.507919769E1,-7.070526481E-3,-7.160246372E-3,-1.973628998E-2
1.508919796E1,3.834855556E-2,-2.427202463E-2,-5.149841309E-3
1.509919796E1,8.822135627E-3,-2.733093500E-2,-1.207351685E-2
1.510919796E1,-1.374392956E-2,-3.755450249E-2,-1.420783997E-2
1.511919796E1,-3.610039502E-2,-2.373427153E-2,-2.592754364E-2
1.512919796E1,-2.917233855E-2,-2.927464247E-2,-4.960441589E-2
1.514919769E1,-3.034595400E-2,-9.275734425E-3,-7.063102722E-2
1.515919769E1,-2.687169611E-2,1.633471251E-2,-8.474159241E-2
1.516919769E1,-2.363847196E-2,8.019268513E-3,-7.007884979E-2
1.517919769E1,-3.979936615E-2,1.381993294E-2,-7.933139801E-2
1.518919769E1,-3.173556179E-2,2.417093515E-2,-5.025482178E-2
1.519919769E1,-4.016123340E-2,2.222889662E-2,-1.396369934E-2
1.520919769E1,-4.994757473E-3,2.010506392E-2,-1.213083267E-1
1.521919769E1,8.451782167E-3,3.426104784E-2,1.240730286E-3
1.522919769E1,1.422881335E-2,4.341721535E-2,-1.371498108E-1
1.523919769E1,2.177323028E-2,2.812820673E-2,2.242088318E-3
1.524919769E1,-1.901356503E-2,3.917175531E-2,-6.186580658E-2
1.525919769E1,3.509968519E-4,5.680942535E-2,-3.732872009E-2
1.526919772E1,-1.383985952E-2,5.714523792E-2,-1.899042130E-1
1.527919772E1,-4.219754785E-2,2.106457949E-2,-1.101875305E-1
1.528919772E1,-3.886891901E-2,2.825337648E-2,-1.573781967E-1
1.529919772E1,-4.472211003E-2,3.084242344E-2,-1.231803894E-1
1.530919772E1,-1.216888614E-2,3.355944157E-2,-1.368732452E-1
1.531919772E1,-2.021062933E-2,5.068546534E-2,-1.242275238E-1
1.532919772E1,4.164278507E-4,3.391152620E-2,-1.354780197E-1
1.533919802E1,3.777081147E-3,2.220726013E-2,-1.060495377E-1
1.534919802E1,-1.479152776E-2,5.640971661E-2,-8.144378662E-2
1.536919775E1,-1.395363361E-3,2.844369411E-2,-4.412651062E-2
1.537919775E1,1.641402394E-2,3.835391998E-2,-4.341125488E-2
1.539919749E1,1.242316235E-2,2.248764038E-2,-1.209926605E-1
1.540919749E1,1.721013337E-2,1.862764359E-2,-1.322937012E-1
1.541919749E1,-7.203802932E-3,3.426194191E-3,-1.723880768E-1
1.542919749E1,-5.318419263E-2,1.786446571E-2,-1.407527924E-1
1.543919775E1,-4.608803615E-2,4.239094257E-2,-6.846904755E-2
1.544919775E1,-6.503972411E-2,3.335571289E-2,1.818752289E-2
1.545919775E1,-6.460264325E-2,3.077006340E-2,-4.177093506E-4
1.546919775E1,-5.650252476E-2,4.633760452E-2,-1.074934006E-1
1.547919775E1,-2.376386523E-2,7.289779186E-2,-1.689653397E-1
1.548919775E1,-1.018986013E-2,6.302320957E-2,-2.160062790E-1
1.549919775E1,-1.806017011E-3,1.791334152E-2,-1.481962204E-1
1.550919775E1,-1.115285046E-2,-3.783559799E-2,-1.092634201E-1
1.551919775E1,-1.165955141E-2,-2.029442787E-2,-1.303510666E-1
1.552919775E1,-3.631797433E-2,-6.240487099E-2,-1.394882202E-1
1.553919775E1,-3.406880051E-2,-5.332589149E-3,-1.511344910E-1
1.554919775E1,-4.824380204E-2,6.411242485E-2,-6.705665588E-2
1.555919775E1,-6.425321847E-2,7.338202000E-2,-1.645755768E-2
1.556919775E1,-6.770186126E-2,1.278125048E-1,-7.594966888E-2
1.557919775E1,-6.544549763E-2,1.331648827E-1,-8.741283417E-2
1.558919802E1,7.318474352E-3,1.355577707E-1,-1.203498840E-1
1.559919802E1,2.257552184E-2,1.056963205E-1,-1.363887787E-1
1.560919802E1,2.014820650E-2,4.830956459E-2,-9.961318970E-2
1.561919802E1,-1.267568767E-2,-3.060007095E-2,-8.678627014E-2
1.562919802E1,-1.989195496E-2,-9.143090248E-2,-8.608531952E-2
1.564919772E1,-3.491616994E-2,-9.055602551E-2,-6.854438782E-2
1.565919772E1,-5.618985742E-2,-9.895372391E-2,-7.556343079E-2
1.566919772E1,-8.388611674E-2,-3.463578224E-2,-8.507633209E-2
1.567919772E1,-7.948040217E-2,-3.521716595E-2,-8.497333527E-2
1.568919772E1,-2.931149304E-2,1.666283607E-2,-7.047557831E-2
1.569919772E1,3.869250417E-3,8.015632629E-4,-5.589199066E-2
1.570919772E1,2.226158977E-4,2.297747135E-2,-4.607009888E-2
1.571919772E1,1.282421499E-2,2.536535263E-2,-4.335784912E-2
1.572919772E1,1.045609266E-2,3.913402557E-2,-6.691551208E-2
1.574919745E1,-3.265605867E-2,5.316352844E-2,-8.271312714E-2
1.575919745E1,-2.967605740E-2,4.643404484E-2,-1.037006378E-1
1.576919745E1,-7.155738771E-3,6.140017509E-2,-1.534299850E-1
1.577919745E1,-8.992902935E-3,4.459297657E-2,-1.719560623E-1
1.578919745E1,2.001949400E-2,3.276145458E-2,-1.569852829E-1
1.579919745E1,-1.165080070E-2,2.615058422E-2,-1.133460999E-1
1.580919745E1,-7.585182786E-3,4.838752747E-2,-5.296039581E-2
1.581919745E1,3.451921046E-3,3.433871269E-2,-3.323173523E-2
1.582919745E1,-9.777061641E-3,2.201282978E-2,-1.043987274E-1
1.583919772E1,1.027598977E-3,9.502530098E-3,-1.348371506E-1
1.584919772E1,-1.950938255E-2,1.904881001E-2,-1.509742737E-1
1.585919772E1,-8.787304163E-3,1.488924026E-2,-1.360673904E-1
1.586919772E1,-2.195446938E-2,2.842390537E-2,-1.404294968E-1
1.587919772E1,-2.041566372E-2,1.611447334E-2,-1.209077835E-1
1.589919745E1,2.115815878E-3,-1.469504833E-2,-8.916759491E-2
1.590919745E1,-1.313053071E-2,-4.264390469E-2,-8.654594421E-2
1.591919745E1,-1.101350784E-2,-4.110562801E-2,-1.103496552E-1
1.592919745E1,-1.341997087E-2,-4.865348339E-2,-1.318187714E-1
1.593919745E1,-2.279311419E-2,-4.168832302E-2,-1.485147476E-1
1.594919745E1,-4.635956883E-2,-2.916002274E-2,-2.251615524E-1
1.595919745E1,-3.605823219E-2,-9.030342102E-3,-2.563667297E-1
1.596919745E1,-4.023283720E-2,-1.267147064E-2,-2.732295990E-1
1.597919745E1,-2.805773914E-2,1.536822319E-2,-2.901687622E-1
1.598919745E1,-2.827391028E-2,2.443838120E-2,-2.736177444E-1
1.599919745E1,-3.155082464E-2,3.437542915E-2,-2.835245132E-1
1.600919745E1,8.078798652E-3,2.027547359E-2,-2.407464981E-1
1.601919745E1,-4.680231214E-3,2.997624874E-2,-2.225332260E-1
1.602919745E1,2.045008540E-2,2.349317074E-2,-1.732683182E-1
1.603919745E1,1.657792926E-2,1.940155029E-2,-1.479425430E-1
1.604919745E1,1.008583605E-2,1.040756702E-2,-9.865760803E-2
1.605919745E1,1.285429299E-2,5.551934242E-3,-1.402692795E-1
1.606919745E1,-1.562070847E-2,2.170693874E-2,-1.339292526E-1
1.607919745E1,8.431479335E-3,3.922224045E-3,-1.131668091E-1
1.608919772E1,-2.247343957E-2,-1.763224602E-3,-1.091756821E-1
1.609919772E1,-1.277662814E-2,-3.120899200E-4,-8.602142334E-2
1.610919772E1,-5.426943302E-3,-2.281618118E-2,-7.722473145E-2
1.611919772E1,-2.207583189E-2,-1.663315296E-2,-7.081508636E-2
1.612919772E1,1.599141210E-2,-4.711258411E-2,-5.413532257E-2
1.614919745E1,-7.826954126E-3,-5.557000637E-2,-9.095191956E-3
1.615919745E1,4.793092608E-3,-7.979309559E-2,-2.186775208E-3
1.616919745E1,9.800188243E-3,-6.751501560E-2,4.534816742E-2
1.617919745E1,3.354956955E-2,-4.072177410E-2,6.173706055E-2
1.618919745E1,2.543465048E-2,-2.187907696E-2,4.469108582E-2
1.619919745E1,5.143262446E-3,-4.919815063E-2,-8.191108704E-3
1.620919745E1,-7.397413254E-3,-5.716466904E-2,-1.320266724E-2
1.621919745E1,-1.404339820E-2,-3.806138039E-2,-1.451816559E-1
1.622919745E1,-3.895006329E-2,-4.393124580E-2,-5.225276947E-2
1.623919745E1,-3.507308662E-2,-3.397488594E-2,-8.399200439E-2
1.624919745E1,9.218275547E-3,-1.187062263E-2,-5.350112915E-2
1.625919745E1,2.380311489E-2,3.142094612E-2,-1.067743301E-1
1.626919745E1,6.906363368E-2,6.656265259E-2,-1.599378586E-1
1.627919775E1,1.038970873E-1,7.183027267E-2,-1.507272720E-1
1.628919775E1,8.976225555E-2,3.130567074E-2,-2.627372742E-3
1.629919775E1,4.106425494E-2,-1.975774765E-3,4.969120026E-2
1.630919775E1,5.400070548E-2,-7.984435558E-2,-3.668498993E-2
1.631919775E1,-1.239219308E-2,-9.348452091E-2,-6.315708160E-2
1.632919775E1,-4.417930543E-2,-8.266544342E-2,-1.423473358E-1
1.633919802E1,-7.045436651E-2,-2.774119377E-2,-1.258783340E-1
1.634919802E1,-5.480793118E-2,2.060520649E-2,-1.190423965E-1
1.635919802E1,-3.337613493E-2,8.407104015E-2,-1.170730591E-1
1.636919802E1,3.223400936E-2,1.211150885E-1,-1.007204056E-1
1.637919802E1,5.052444711E-2,1.001868248E-1,-8.669853210E-2
1.639919775E1,8.087968826E-2,-5.182027817E-4,-5.583095551E-2
1.640919775E1,6.431668252E-2,-8.652138710E-2,-1.995086670E-2
1.641919775E1,2.282747068E-2,-1.594573855E-1,-3.687286377E-2
1.642919775E1,2.326741815E-4,-2.020485401E-1,-3.960704803E-2
1.643919775E1,-1.527094096E-2,-2.187044621E-1,-4.974651337E-2
1.644919775E1,-8.973799646E-3,-1.566353440E-1,-6.250762939E-2
1.645919775E1,-6.186962128E-5,-1.320517659E-1,-6.816959381E-2
1.646919775E1,4.979340732E-2,-5.167520046E-2,-6.432437897E-2
1.647919775E1,2.482624352E-2,-1.752114296E-2,-4.842281342E-2
1.648919775E1,3.118403815E-2,8.103609085E-3,-2.758216858E-2
1.649919775E1,3.057533503E-2,-2.036070824E-2,-1.137065887E-2
1.650919775E1,3.995227069E-2,-4.427671432E-3,-2.377128601E-2
1.651919775E1,3.508319333E-2,-1.319289207E-3,-2.649974823E-2
1.652919775E1,6.664445624E-3,-2.547395229E-2,-5.067729950E-2
1.653919775E1,7.599931210E-3,7.570624352E-3,-5.567073822E-2
1.654919775E1,1.588262431E-2,2.821099758E-2,-5.583000183E-2
1.655919775E1,6.227272749E-2,4.323923588E-2,-8.942031860E-2
1.656919775E1,5.286213383E-2,9.709358215E-3,-1.588554382E-1
1.658919772E1,2.995488420E-2,-1.871109009E-3,-1.253833771E-1
1.659919772E1,1.720583066E-2,1.107490063E-2,-1.063337326E-1
1.660919772E1,4.482598044E-3,-2.158105373E-2,-8.966445923E-2
1.661919772E1,-2.958163992E-2,-2.557384968E-2,-9.453582764E-2
1.662919772E1,-7.791329641E-3,-4.144906998E-2,-1.185703278E-1
1.664919745E1,-6.195320282E-3,-3.686189651E-2,-1.211919785E-1
1.665919745E1,4.404153675E-3,-9.041428566E-3,-7.825088501E-2
1.666919745E1,3.100340255E-3,-7.309436798E-3,-7.842922211E-2
1.667919745E1,4.263932817E-3,-7.324218750E-4,-5.706596375E-2
1.668919745E1,3.397954255E-2,-4.656267166E-2,-5.967330933E-2
1.669919745E1,3.271789104E-2,-4.408013821E-2,-5.992794037E-2
1.670919745E1,1.452790760E-2,-6.975728273E-2,-6.981945038E-2
1.671919745E1,-1.565918699E-2,-6.627541780E-2,-8.693504333E-2
1.672919745E1,-4.726498388E-3,-6.485933065E-2,-1.160554886E-1
1.673919745E1,-1.048453338E-2,-4.647904634E-2,-1.164646149E-1
1.674919745E1,-1.384682953E-2,-1.872861385E-2,-1.264266968E-1
1.675919745E1,-7.563238032E-3,-1.266658306E-2,-1.651058197E-1
1.676919745E1,1.054013707E-2,1.421570778E-4,-1.175460815E-1
1.677919745E1,-1.249917969E-2,1.762068272E-2,-9.391498566E-2
1.678919745E1,1.015068777E-2,1.063585281E-2,-7.741355896E-2
1.679919745E1,8.843220770E-3,1.522332430E-2,-5.608177185E-2
1.680919745E1,1.720452495E-2,2.154803276E-2,-6.341457367E-2
1.681919745E1,3.278734908E-2,5.716741085E-3,-6.589889526E-2
1.682919745E1,1.940903068E-2,-1.034617424E-2,-7.793521881E-2
1.683919771E1,1.316326112E-2,7.330417633E-3,-8.041572571E-2
1.684919771E1,3.096937388E-2,-1.337331533E-2,-9.007263184E-2
1.685919771E1,7.750164717E-3,-2.178215981E-2,-9.257698059E-2
1.686919771E1,8.684143424E-3,-1.304906607E-2,-1.023035049E-1
1.687919771E1,1.909012720E-2,-3.777205944E-2,-9.288024902E-2
1.689919745E1,1.388533413E-2,-6.379801035E-2,-9.816265106E-2
1.690919745E1,-4.447635263E-3,-4.400038719E-2,-7.211875916E-2
1.691919745E1,3.509530425E-2,-4.349762201E-2,-7.000446320E-2
1.692919745E1,2.540759742E-3,-4.537791014E-2,-7.028293610E-2
1.693919745E1,-1.030601561E-3,-2.576524019E-2,-8.252716064E-2
1.694919745E1,1.471417025E-2,-4.202789068E-2,-1.258993149E-1
1.695919745E1,1.838526875E-2,-1.736462116E-2,-9.267807007E-2
1.696919745E1,-4.352640361E-3,-3.344267607E-2,-8.818149567E-2
1.697919745E1,-1.755025238E-2,-1.793658733E-2,-9.809207916E-2
1.698919745E1,1.750151813E-2,-3.108257055E-2,-4.336833954E-2
1.699919745E1,3.761710972E-2,-4.194116592E-2,-6.524372101E-2
1.700919745E1,1.423268765E-2,-9.557247162E-3,-5.600547791E-2
1.701919745E1,2.173253521E-2,-2.552562952E-2,-7.544994354E-2
1.702919745E1,1.282683760E-2,-1.064938307E-2,-9.726238251E-2
1.703919745E1,6.323032081E-3,-3.173720837E-2,-9.991455078E-2
1.704919745E1,-1.912914589E-2,-2.397203445E-2,-7.624340057E-2
1.705919745E1,-8.958362043E-3,-2.561467886E-2,-3.582572937E-2
1.706919745E1,5.441434681E-3,-2.754944563E-2,-6.959533691E-2
1.707919745E1,3.430604935E-3,-2.525514364E-2,-6.979560852E-2
1.708919771E1,2.797747403E-2,2.920484543E-2,-1.705055237E-1
1.709919771E1,2.837919444E-2,4.011440277E-2,-1.275186539E-1
1.710919771E1,3.750777990E-2,-9.222567081E-3,6.155776978E-2
1.711919771E1,-1.221800596E-2,-6.568765640E-2,9.501743317E-2
1.712919771E1,7.424846292E-3,-1.107766628E-1,-1.511764526E-2
1.714919745E1,-5.195267498E-3,-7.853305340E-2,-1.181020737E-1
1.715919745E1,1.369138062E-2,-4.738563299E-2,-1.518182755E-1
1.716919745E1,6.124235690E-3,5.904960632E-2,-1.616878510E-1
1.717919745E1,9.518489242E-4,6.469595432E-2,-2.074480057E-1
1.718919745E1,-1.466199756E-3,9.480947256E-2,-2.053737640E-1
1.719919745E1,-2.981029451E-3,9.834951162E-2,-2.056789398E-1
1.720919745E1,1.972585917E-2,7.947814465E-2,-2.130899429E-1
1.721919745E1,5.878970772E-2,1.664781570E-2,-1.653528214E-1
1.722919745E1,5.399455875E-2,-7.350856066E-2,-7.681560516E-2
1.723919745E1,2.691079676E-2,-1.057867408E-1,-1.080160141E-1
1.724919745E1,4.998597503E-2,-9.648686647E-2,-8.422565460E-2
1.725919745E1,2.941890806E-2,-1.176728010E-1,-1.466770172E-1
1.726919745E1,1.352643967E-2,-9.004592896E-2,-9.907341003E-2
1.727919745E1,1.939322054E-2,-6.651711464E-2,-1.544818878E-1
1.728919745E1,6.104245782E-3,-3.538173437E-2,-9.500217438E-2
1.729919745E1,-1.186819375E-2,-1.405656338E-2,-1.456336975E-1
1.730919745E1,1.112401485E-2,-5.069553852E-3,-9.567642212E-2
1.731919745E1,2.709388733E-2,-2.045720816E-2,-8.638191223E-2
1.732919745E1,2.866865695E-2,-2.410352230E-2,-5.551719666E-2
1.733919771E1,1.601348817E-2,-1.890486479E-2,-7.965564728E-2
1.734919771E1,1.263722777E-3,-6.595432758E-3,-7.266616821E-2
1.735919771E1,-1.063179970E-2,1.045149565E-2,-8.004379272E-2
1.736919771E1,1.176701486E-2,2.470278740E-2,-6.106090546E-2
1.737919771E1,1.519161463E-2,9.660065174E-3,-7.315635681E-2
1.739919745E1,1.617342234E-2,-2.351546288E-2,-1.260013580E-1
1.740919744E1,9.338051081E-3,-4.319250584E-2,-1.141557693E-1
1.741919745E1,1.482377946E-2,-5.268287659E-2,-6.884670258E-2
1.742919744E1,1.559585333E-3,-3.311270475E-2,-9.779357910E-2
1.743919744E1,1.425610483E-2,-4.000604153E-2,-1.099624634E-1
1.744919744E1,-3.657326102E-3,-3.763639927E-2,-1.029586792E-1
1.745919744E1,4.660442472E-3,-6.356120110E-3,-1.318807602E-1
1.746919745E1,-2.582955360E-2,-1.289629936E-2,-1.129493713E-1
1.747919744E1,-5.820229650E-3,2.208888531E-3,-5.332851410E-2
1.748919745E1,1.896530390E-2,-6.715595722E-3,-4.876518250E-2
1.749919768E1,7.729023695E-3,-1.608252525E-2,-1.782512665E-2
1.750919768E1,3.461688757E-3,-3.739303350E-2,-1.800727844E-2
1.751919768E1,2.356742322E-2,-4.705381393E-2,-2.535343170E-2
1.752919768E1,3.848677874E-2,-5.929177999E-2,-3.028202057E-2
1.753919768E1,2.205888927E-2,-4.978573322E-2,-6.155681610E-2
1.754919768E1,1.532389224E-2,-4.234379530E-2,-1.024379730E-1
1.755919798E1,2.060326934E-2,-4.691857100E-2,-1.265544891E-1
1.756919798E1,4.246324301E-3,-2.735900879E-2,-1.243476868E-1
1.757919798E1,7.139980793E-3,-2.211076021E-2,-1.389064789E-1
1.758919824E1,-3.066554666E-2,-2.543210983E-3,-1.103630066E-1
1.759919824E1,-1.579108834E-2,-2.853274345E-4,-1.081123352E-1
1.760919824E1,1.395459473E-2,-1.446783543E-2,-8.913707733E-2
1.761919824E1,1.390862465E-2,4.985690117E-3,-7.014751434E-2
1.762919824E1,2.141939104E-2,-7.152557373E-3,-5.591583252E-2
1.764919798E1,1.946629584E-2,1.823961735E-3,-4.179191589E-2
1.765919798E1,3.179442883E-2,5.991756916E-3,-6.582927704E-2
1.766919798E1,4.174190760E-2,4.969358444E-3,-5.871105194E-2
1.767919798E1,2.028243244E-2,-2.265715599E-2,-6.353664398E-2
1.768919798E1,1.804450154E-2,-1.893293858E-2,-7.316875458E-2
1.769919798E1,1.110363007E-2,-2.230131626E-2,-8.999252319E-2
1.770919798E1,2.589535713E-2,-2.551519871E-2,-9.246444702E-2
1.771919798E1,9.563133121E-3,-2.867960930E-2,-7.578849792E-2
1.772919798E1,2.213113010E-2,-2.464777231E-2,-8.545112610E-2
1.773919824E1,9.603053331E-4,-2.068978548E-2,-7.834339142E-2
1.774919824E1,2.078622580E-2,-2.150702477E-2,-9.279155731E-2
1.775919824E1,2.365347743E-2,-1.747339964E-2,-1.000556946E-1
1.776919824E1,-4.367679358E-3,-3.987306356E-2,-9.534645081E-2
1.777919824E1,3.358528018E-3,-6.541848183E-3,-7.871246338E-2
1.778919824E1,-2.999007702E-4,-2.158784866E-2,-8.599662781E-2
1.780919801E1,1.133470237E-2,-3.208571672E-2,-8.143711090E-2
1.781919801E1,7.430642843E-3,-2.292644978E-2,-8.155059814E-2
1.782919801E1,-6.254345179E-3,-2.050560713E-2,-6.253814697E-2
1.783919828E1,6.602436304E-3,-3.022962809E-2,-4.351711273E-2
1.784919854E1,1.480363309E-2,-2.338498831E-2,-3.645515442E-2
1.786919824E1,3.208220005E-5,-2.102744579E-2,-6.529235840E-2
1.787919824E1,3.730818629E-3,-2.722740173E-2,-8.209896088E-2
1.789919797E1,-1.367931068E-2,-3.072112799E-2,-6.541919708E-2
1.790919797E1,-6.496906281E-3,-1.027703285E-3,-8.225059509E-2
1.791919797E1,-4.273101687E-3,6.452858448E-3,-1.109991074E-1
1.792919797E1,1.273646951E-2,2.543902397E-2,-1.540880203E-1
1.793919827E1,4.945161939E-2,3.554260731E-2,-1.613292694E-1
1.794919831E1,2.715814114E-2,1.640617847E-2,-2.723693848E-2
1.795919831E1,1.316523552E-2,-1.719659567E-2,7.576942444E-2
1.796919831E1,-1.319472492E-2,-9.185945988E-2,7.586383820E-2
1.797919831E1,-1.250347495E-2,-9.254181385E-2,-6.570816040E-4
1.798919831E1,-2.012011409E-2,-6.930029392E-2,-9.636116028E-2
1.799919831E1,-5.160301924E-3,-2.912420034E-2,-7.957744598E-2
1.800919831E1,-3.057835996E-2,1.684248447E-2,-6.766605377E-2
1.801919831E1,-1.495996118E-2,3.636878729E-2,-1.467342377E-1
1.802919831E1,-3.769999743E-2,6.330358982E-2,-2.090578079E-1
1.804919804E1,1.380264759E-2,7.240647078E-2,-2.380208969E-1
1.805919804E1,2.697360516E-2,4.622727633E-2,-1.638431549E-1
1.806919804E1,3.936848044E-2,-1.158338785E-2,-4.890537262E-2
1.807919804E1,3.434990346E-2,-2.372801304E-2,-1.297378540E-2
1.808919834E1,1.443295181E-2,-4.378181696E-2,2.541923523E-2
1.809919834E1,-5.569621921E-3,-7.557564974E-2,1.112461090E-2
1.810919834E1,-3.568723798E-3,-8.280694485E-2,-8.335113525E-4
1.811919834E1,-3.742536902E-2,-4.143297672E-2,-3.439331055E-2
1.812919834E1,-3.711144626E-2,-4.077523947E-2,-3.445053101E-2
1.814919781E1,4.364699125E-4,-6.442070007E-3,-4.652118683E-2
1.815919781E1,3.991007805E-3,1.470506191E-2,-4.173183441E-2
1.816919781E1,-4.191294312E-3,-1.027166843E-3,-3.208732605E-2
1.817919781E1,1.169818640E-2,-1.509630680E-2,-3.675746918E-2
1.818919781E1,3.514885902E-3,-1.516425610E-2,-2.224159241E-2
1.819919781E1,-3.564590216E-2,5.955398083E-3,1.623916626E-2
1.820919781E1,-1.897756755E-2,2.651286125E-2,-7.693481445E-2
1.821919781E1,-6.572321057E-3,6.701946259E-4,2.627468109E-2
1.822919781E1,4.221390188E-2,2.081531286E-2,-1.289548874E-1
1.824919747E1,2.730436623E-2,2.674400806E-3,-8.498001099E-2
1.825919747E1,1.882670820E-2,1.741230488E-2,-4.382228851E-2
1.826919747E1,-4.195865989E-2,5.229890347E-3,-1.607770920E-1
1.827919747E1,-1.761040092E-2,9.184241295E-3,-1.244783401E-1
1.828919747E1,-1.124292612E-4,1.260125637E-2,-2.030620575E-1
1.829919747E1,-1.157963276E-2,1.357513666E-2,-1.307973862E-1
1.830919747E1,-3.534565866E-2,2.167165279E-2,-9.203433990E-2
1.831919747E1,-1.589424908E-2,5.364853144E-2,-6.284141541E-2
1.832919747E1,-1.302260160E-2,5.362814665E-2,-2.639198303E-2
1.833919777E1,4.588276148E-3,3.638505936E-2,-9.057998657E-3
1.834919777E1,-1.844261587E-2,1.650470495E-2,-1.564025879E-2
1.835919777E1,4.266873002E-3,3.502094746E-2,-2.701568604E-2
1.836919777E1,5.292981863E-3,7.673084736E-3,-5.271339417E-2
1.837919777E1,1.088052988E-3,-2.981424332E-4,-5.926036835E-2
1.839919747E1,-5.047628284E-2,1.074451208E-2,-6.760215759E-2
1.840919747E1,-5.371627957E-2,2.015107870E-2,-1.196899414E-1
1.841919747E1,-8.262122422E-2,2.472329140E-2,-1.119232178E-1
1.842919747E1,-6.981851161E-2,4.859727621E-2,-1.305141449E-1
1.843919747E1,-5.429185182E-2,4.339367151E-2,-1.370992661E-1
1.844919747E1,-1.729963720E-2,5.727308989E-2,-1.508502960E-1
1.845919747E1,-3.142327815E-2,7.103693485E-2,-1.406259537E-1
1.846919747E1,-1.489654183E-2,7.025074959E-2,-1.207923889E-1
1.847919747E1,-3.610298038E-3,8.652585745E-2,-7.224082947E-2
1.848919747E1,1.451952755E-2,8.551746607E-2,-6.868362427E-3
1.849919747E1,-3.226980567E-2,7.197827101E-2,3.503799438E-3
1.850919747E1,-2.818738669E-2,7.243371010E-2,-1.721191406E-2
1.851919747E1,-1.407093555E-2,5.567091703E-2,-3.548240662E-2
1.852919747E1,-3.598231077E-2,6.261050701E-2,-8.962821960E-2
1.853919747E1,-4.085598141E-2,3.123098612E-2,-1.150350571E-1
1.854919747E1,-3.398323059E-2,4.586666822E-2,-1.261138916E-1
1.855919747E1,-3.956821561E-2,2.737247944E-2,-1.396131516E-1
1.856919747E1,-4.772248492E-2,4.582476616E-2,-1.484174728E-1
1.857919747E1,-4.345333949E-2,2.837216854E-2,-1.428546906E-1
1.858919774E1,-3.637214005E-2,1.142609119E-2,-1.540994644E-1
1.859919774E1,-3.684104979E-2,3.347599506E-2,-1.558284760E-1
1.860919774E1,-1.093719155E-2,5.578911304E-2,-1.360321045E-1
1.861919774E1,-1.443371922E-2,3.992056847E-2,-1.234216690E-1
1.862919774E1,-6.557777524E-3,5.764317513E-2,-9.165287018E-2
1.864919744E1,-1.565212011E-2,4.660272598E-2,-6.868934631E-2
1.865919744E1,-2.991908416E-2,2.544105053E-2,-5.838775635E-2
1.866919744E1,-3.419993818E-2,2.364301682E-2,-8.880710602E-2
1.867919744E1,-3.577233851E-2,1.503217220E-2,-1.048994064E-1
1.868919744E1,-5.939748138E-3,2.835011482E-2,-9.708690643E-2
1.869919744E1,-1.696150377E-2,1.756811142E-2,-8.925342560E-2
1.870919744E1,-6.724376231E-3,9.668588638E-3,-1.149854660E-1
1.871919744E1,-1.330601797E-2,1.879405975E-2,-1.287736893E-1
1.872919744E1,-5.512773991E-3,1.125717163E-2,-1.521453857E-1
1.873919744E1,-3.357965872E-2,2.575337887E-2,-1.803579330E-1
1.874919744E1,-3.307013959E-2,3.328347206E-2,-9.845829010E-2
1.875919744E1,-1.823235117E-2,3.208935261E-2,-4.059505463E-2
1.876919744E1,-4.658329114E-2,5.418825150E-2,-1.856899261E-2
1.877919744E1,-2.464372665E-2,5.130350590E-2,-5.866718292E-2
1.878919744E1,2.444809303E-3,7.586157322E-2,-1.943807602E-1
1.879919744E1,-4.257366061E-3,4.728710651E-2,-2.151117325E-1
1.880919744E1,1.523132436E-2,2.195692062E-2,-1.138334274E-1
1.881919744E1,-1.902868040E-2,-6.892919540E-3,-6.537151337E-2
1.882919744E1,-2.277422324E-2,-5.661523342E-2,-1.055717468E-1
1.883919770E1,-1.715688594E-2,-6.032717228E-2,-1.290721893E-1
1.884919770E1,-4.000452906E-2,-1.499247551E-2,-1.574993134E-1
1.885919770E1,-7.176600397E-2,2.794122696E-2,-1.117048264E-1
1.886919770E1,-7.647688687E-2,7.150948048E-2,-4.683494568E-2
1.887919770E1,-6.354772300E-2,1.170873642E-1,-5.613803864E-2
1.889919744E1,5.559698120E-2,1.483693123E-1,-1.343002319E-1
1.890919744E1,5.040288717E-2,1.048089266E-1,-1.743621826E-1
1.891919744E1,5.669758096E-2,2.703964710E-2,-1.496915817E-1
1.892919744E1,1.856217720E-2,-5.509448051E-2,-1.274633408E-1
1.893919744E1,-6.563176401E-3,-9.015440941E-2,-1.197948456E-1
1.894919744E1,-3.675283492E-2,-1.163662672E-1,-1.003599167E-1
1.895919744E1,-4.247883335E-2,-1.120878458E-1,-1.002950668E-1
1.896919744E1,-6.710247695E-2,-8.989131451E-2,-1.362848282E-1
1.897919744E1,-6.472888589E-2,-8.854436874E-2,-1.364469528E-1
1.898919744E1,-5.733835325E-2,-6.769299507E-2,-1.390457153E-1
1.899919744E1,-4.517609626E-2,1.273453236E-2,-1.535797119E-1
1.900919744E1,-4.324950278E-3,2.319169044E-2,-1.321325302E-1
1.901919744E1,-2.173371613E-4,1.436495781E-2,-1.465854645E-1
1.902919744E1,2.247936092E-2,3.160166740E-2,-1.490354538E-1
1.903919744E1,2.292644605E-2,3.134846687E-2,-1.490030289E-1
1.904919744E1,-2.584392205E-3,1.194250584E-2,-2.184000015E-1
1.905919744E1,3.113238141E-3,2.628004551E-2,-2.064237595E-1
1.906919744E1,-5.587037653E-3,2.190721035E-2,-2.160491943E-1
1.907919744E1,1.685595699E-2,6.344330311E-2,-2.257251740E-1
1.908919770E1,3.144204989E-2,1.509666443E-3,-2.784347534E-1
1.909919770E1,2.113431692E-2,2.656531334E-2,-2.689981461E-1
1.910919770E1,1.525624655E-2,6.382107735E-3,-2.524099350E-1
1.911919770E1,-2.222196199E-2,-1.547098160E-2,-1.880264282E-1
1.912919770E1,-1.405066811E-2,-2.459335327E-2,-1.357069016E-1
1.914919744E1,-4.257462919E-2,-1.953470707E-2,-1.710138321E-1
1.915919744E1,-2.646566555E-2,-3.136217594E-2,-1.814785004E-1
1.916919744E1,-2.266942710E-2,1.935958862E-4,-1.752109528E-1
1.917919744E1,-9.672265500E-3,-2.482247353E-2,-1.618595123E-1
1.918919744E1,2.234640904E-2,-2.296078205E-2,-1.748991013E-1
1.919919744E1,1.381601579E-2,-3.249311447E-2,-1.472949982E-1
1.920919744E1,1.468142681E-2,-7.499039173E-2,-6.467628479E-2
1.921919744E1,8.317171596E-3,-7.169270515E-2,-1.017894745E-1
1.922919744E1,1.825452782E-2,-9.539723396E-2,-6.911373138E-2
1.923919744E1,8.654412813E-3,-8.674609661E-2,-8.205890656E-2
1.924919744E1,-1.299271639E-2,-9.891724586E-2,-6.155776978E-2
1.925919744E1,-1.793111302E-2,-6.472587585E-2,-3.156661987E-2
1.926919744E1,-2.286626026E-2,-6.895911694E-2,-6.619453430E-2
1.927919744E1,-3.501459956E-2,-4.468619823E-2,-2.625465393E-3
1.928919744E1,-3.525576741E-2,-5.432987213E-2,-6.349945068E-2
1.929919744E1,-1.868491061E-2,-3.794860840E-2,-4.053401947E-2
1.930919744E1,4.702717066E-3,-2.651369572E-2,-5.345535278E-2
1.931919744E1,-5.832443014E-3,-5.372881889E-2,-8.869171143E-3
1.932919744E1,2.932951041E-2,-1.181578636E-2,2.378654480E-2
1.933919770E1,2.833534777E-2,-2.350580692E-2,4.218196869E-2
1.934919770E1,4.647341743E-2,-1.922345161E-2,3.672122955E-2
1.935919770E1,4.276389629E-2,-2.542662621E-2,1.938915253E-2
1.936919770E1,4.852122441E-2,-2.995979786E-2,1.171302795E-2
1.937919770E1,4.926099628E-2,-4.187160730E-2,-2.466869354E-2
1.939919744E1,2.358148992E-2,-7.550156116E-2,-1.838397980E-2
1.940919744E1,4.080229253E-2,-6.381005049E-2,-4.514122009E-2
1.941919770E1,3.848649561E-2,-6.822490692E-2,-7.195568085E-2
1.942919770E1,4.340829700E-2,-7.002502680E-2,-7.005786896E-2
1.943919770E1,2.194104344E-2,-8.348554373E-2,-7.775974274E-2
1.944919770E1,2.945108712E-2,-5.583256483E-2,-7.831668854E-2
1.945919770E1,1.307084411E-2,-5.931496620E-2,-7.168388367E-2
1.946919770E1,1.588971913E-2,-5.551213026E-2,-8.421039581E-2
1.947919770E1,1.643200219E-2,-3.249412775E-2,-8.476448059E-2
1.948919770E1,9.685784578E-3,-4.801052809E-2,-6.613922119E-2
1.949919770E1,8.186407387E-3,-2.975934744E-2,-4.753494263E-2
1.950919770E1,4.518043250E-2,-4.059761763E-2,-3.847026825E-2
1.951919770E1,5.085568130E-2,-5.871719122E-2,-2.460193634E-2
1.952919770E1,4.931712151E-2,-3.601288795E-2,-2.989196777E-2
1.953919770E1,4.785477370E-2,-5.703818798E-2,-4.709148407E-2
1.954919770E1,5.340515077E-2,-2.799248695E-2,-6.665992737E-2
1.955919770E1,2.576346695E-2,-1.148664951E-2,-5.984115601E-2
1.956919770E1,2.701626718E-2,-3.107535839E-2,-6.497478485E-2
1.957919770E1,4.319503903E-3,-2.674704790E-2,-2.940273285E-2
1.958919800E1,-7.947251201E-3,-1.786935329E-2,-7.521915436E-2
1.959919800E1,-1.082059741E-2,-1.927566528E-2,-1.161804199E-1
1.960919800E1,2.798736095E-2,4.169255495E-2,-1.739244461E-1
1.961919800E1,5.972431600E-2,3.462958336E-2,-1.453886032E-1
1.962919800E1,4.970121384E-2,-1.108455658E-2,2.445030212E-2
1.964919773E1,1.651729643E-2,-1.189647317E-1,6.728076935E-2
1.965919800E1,1.246653497E-2,-1.316618323E-1,-1.899147034E-2
1.966919800E1,4.278297722E-2,-8.415955305E-2,-6.460380554E-2
1.967919800E1,1.334671676E-2,-6.462514400E-2,-4.803371429E-2
1.968919800E1,-2.261273563E-2,-1.780647039E-2,-1.057748795E-1
1.969919800E1,-2.421969175E-2,2.449154854E-2,-1.204547882E-1
1.970919800E1,-3.716605902E-2,4.067480564E-2,-1.614999771E-1
1.972919773E1,1.229308546E-2,4.591602087E-2,-1.144943237E-1
1.973919773E1,3.709964454E-2,8.132874966E-3,-4.532146454E-2
1.974919773E1,4.665240645E-2,-4.241532087E-2,2.632617950E-2
1.975919773E1,2.652850747E-2,-6.706559658E-2,7.647991180E-2
1.976919773E1,4.680818319E-2,-1.036823392E-1,5.960178375E-2
1.977919773E1,4.171088338E-3,-1.041311622E-1,7.144355774E-2
1.978919773E1,2.390696108E-2,-8.524036407E-2,4.017448425E-2
1.979919773E1,5.686640739E-3,-5.918312073E-2,4.720687866E-2
1.980919773E1,-1.666545868E-2,-2.863812447E-2,6.143665314E-2
1.981919773E1,-1.680725813E-2,-2.758604288E-2,6.135272980E-2
1.982919773E1,-1.624490321E-2,-1.851916313E-3,1.236419678E-1
1.983919800E1,9.107157588E-3,-1.157361269E-2,1.383895874E-1
1.984919800E1,-1.015958190E-2,-6.016671658E-3,1.604328156E-1
1.985919800E1,-2.379877865E-2,1.422762871E-4,1.897993088E-1
1.986919800E1,4.809260368E-3,-6.173670292E-3,1.643285751E-1
1.987919800E1,2.231094241E-2,-1.213741302E-2,1.941041946E-1
1.989919770E1,6.232276559E-2,-1.691907644E-2,1.583442688E-1
1.990919770E1,4.597681761E-2,8.729100227E-3,1.263055801E-1
1.991919770E1,4.900729656E-2,-5.017161369E-3,1.662311554E-1
1.992919770E1,2.175264060E-3,1.861524582E-2,3.092327118E-1
1.993919770E1,-3.213503212E-2,2.894824743E-2,4.380397797E-1
1.994919770E1,-7.947235554E-2,2.066165209E-2,5.146389008E-1
1.996919743E1,-3.163307160E-2,-1.356482506E-3,4.443264008E-1
1.997919743E1,-1.801634580E-2,-2.871274948E-3,3.357858658E-1
1.998919743E1,2.032730728E-2,-2.131867409E-2,1.846046448E-1
1.999919743E1,2.558460832E-2,-7.344961166E-3,5.768299103E-2
2.000919743E1,5.011793226E-2,6.966352463E-3,-7.386970520E-2
2.001919743E1,5.326429382E-2,-1.518177986E-2,-2.006750107E-1
2.002919743E1,1.388005726E-2,-1.530945301E-2,-3.303842545E-1
2.003919743E1,5.872482434E-3,-1.086616516E-2,-4.461994171E-1
2.004919743E1,-1.661973074E-2,-2.276968956E-2,-6.392278671E-1
2.005919743E1,-5.884817988E-2,-8.882689476E-2,-7.348051071E-1
2.006919743E1,-8.290238678E-2,-1.175415516E-1,-8.359928131E-1
2.007919743E1,-7.255139947E-2,-1.227058172E-1,-8.758659363E-1
2.008919770E1,-1.696109027E-2,-8.455038071E-2,-8.928232193E-1
2.009919770E1,3.357499838E-2,-4.357755184E-2,-8.513069153E-1
2.010919770E1,8.870817721E-2,4.493689537E-2,-6.906919479E-1
2.011919770E1,4.454395920E-2,2.127168179E-1,-5.879068375E-1
2.012919770E1,2.531883866E-2,2.160731554E-1,-4.732608795E-1
2.014919743E1,-1.251674443E-2,1.187123060E-1,-4.012432098E-1
2.015919743E1,-1.298314333E-2,6.807386875E-2,-3.528614044E-1
2.016919743E1,4.256160557E-2,2.112507820E-2,-3.282737732E-1
2.017919743E1,7.397164404E-2,1.162731647E-2,-2.772169113E-1
2.018919743E1,7.732671499E-2,6.447672844E-3,-9.917926788E-2
2.019919743E1,6.514895707E-2,4.121530056E-2,-1.917934418E-2
2.020919743E1,-7.852122188E-3,6.509768963E-2,1.543836594E-1
2.021919743E1,-1.921812445E-2,5.801415443E-2,1.989545822E-1
2.022919743E1,-7.693582773E-2,4.524171352E-2,3.995666504E-1
2.023919743E1,-7.170295715E-2,3.338158131E-2,4.713659286E-1
2.024919743E1,-7.369548082E-2,-2.154564857E-2,6.921834946E-1
2.025919743E1,-7.310447097E-2,-1.038699150E-1,7.536020279E-1
2.026919743E1,-5.429679528E-2,-1.725126505E-1,8.564300537E-1
2.027919743E1,-1.856902987E-2,-1.697783470E-1,7.971687317E-1
2.028919743E1,2.288684249E-2,-1.642912626E-1,6.691312790E-1
2.029919743E1,3.143594414E-2,-1.330193281E-1,5.535678864E-1
2.030919743E1,3.240069747E-2,-1.153031588E-1,3.617315292E-1
2.031919743E1,9.773895144E-4,-8.380019665E-2,2.586956024E-1
2.032919743E1,-2.293865383E-2,-6.362354755E-2,1.844301224E-1
2.033919770E1,-3.298130631E-2,-8.463871479E-2,1.650724411E-1
2.034919770E1,-8.209447563E-2,-8.285295963E-2,2.078771591E-1
2.035919770E1,-6.241902709E-2,-7.746970654E-2,2.194671631E-1
2.036919770E1,-6.134039164E-2,-9.935927391E-2,1.399526596E-1
2.037919770E1,-1.552598178E-2,-4.538917542E-2,1.959133148E-2
2.039919743E1,9.303861111E-2,-3.938281536E-2,-3.299112320E-1
2.040919743E1,1.265983135E-1,-1.976859570E-2,-5.049514771E-1
2.041919743E1,1.465937793E-1,-1.912081242E-2,-5.998115540E-1
2.042919743E1,1.107504591E-1,4.429006577E-2,-6.408767700E-1
2.043919743E1,6.035093963E-2,1.552574635E-1,-6.351737976E-1
2.044919743E1,3.800179064E-2,1.854913235E-1,-6.303482056E-1
2.045919743E1,3.277608752E-2,1.706470251E-1,-6.714801788E-1
2.046919743E1,-2.145498991E-2,1.756705046E-1,-7.917823792E-1
2.047919743E1,-8.111268282E-3,1.808428764E-1,-7.900762558E-1
2.048919743E1,-2.001285553E-2,1.105748415E-1,-6.378297806E-1
2.049919743E1,-2.458636463E-2,8.838784695E-2,-5.143489838E-1
2.050919743E1,-2.783612907E-2,3.146219254E-2,-3.571367264E-1
2.051919743E1,-7.630541921E-3,-1.844644547E-2,-3.431606293E-1
2.052919743E1,1.296229661E-2,-3.099966049E-2,-3.310394287E-1
2.053919743E1,2.275702357E-2,1.450181007E-3,-2.609872818E-1
2.054919743E1,-1.570552588E-3,1.749467850E-2,-1.714315414E-1
2.055919743E1,3.250867128E-3,4.166960716E-2,-1.869487762E-1
2.056919743E1,-1.553013921E-3,7.629299164E-2,-3.745365143E-1
2.057919743E1,-1.302841306E-2,6.615281105E-2,-4.927349091E-1
2.058919773E1,-4.615822434E-2,4.145288467E-2,-5.657033920E-1
2.059919773E1,-6.158323586E-2,1.012766361E-2,-4.977970123E-1
2.060919773E1,-7.754904032E-2,-3.063440323E-2,-2.841854095E-1
2.061919773E1,-6.439338624E-2,-3.469681740E-2,-1.233701706E-1
2.062919773E1,-4.687435925E-2,-9.291028976E-2,7.112693787E-2
2.064919746E1,-6.228962541E-2,-2.010297775E-1,1.125450134E-1
2.065919746E1,-8.249852061E-2,-2.201343775E-1,5.772113800E-2
2.066919746E1,-3.385733068E-2,-2.056232691E-1,-3.939628601E-3
2.067919746E1,-1.493155956E-3,-1.695884466E-1,-2.004623413E-2
2.068919746E1,9.351839125E-2,-7.656180859E-2,4.265594482E-2
2.069919746E1,1.064435765E-1,-4.587256908E-2,9.790134430E-2
2.070919746E1,9.829630703E-2,1.038217545E-2,9.069442749E-2
2.071919746E1,8.912341297E-2,2.423048019E-3,2.004623413E-3
2.072919746E1,4.522837698E-2,-3.039121628E-3,-1.537590027E-1
2.073919746E1,2.878533304E-2,6.448864937E-3,-2.785062790E-1
2.074919746E1,3.765912354E-2,-1.822614670E-2,-3.604135513E-1
2.075919746E1,4.090759158E-2,-9.440660477E-3,-3.229398727E-1
2.076919746E1,6.020805240E-2,1.134848595E-2,-1.852436066E-1
2.077919746E1,5.489818752E-2,2.128291130E-2,-1.123456955E-1
2.078919746E1,4.914462566E-2,3.060293198E-2,-3.936576843E-2
2.079919746E1,1.927851140E-2,4.630398750E-2,-2.821826935E-2
2.080919746E1,-7.944375277E-3,4.294133186E-2,7.180213928E-3
2.081919746E1,-3.433436155E-3,4.203855991E-2,-1.696205139E-2
2.082919746E1,1.854661107E-2,3.473937511E-2,-1.079158783E-1
2.083919773E1,2.921831608E-2,3.379094601E-2,-1.939592361E-1
2.084919773E1,4.292488098E-2,4.796600342E-2,-2.872686386E-1
2.085919773E1,5.748072267E-2,4.517638683E-2,-2.850713730E-1
2.086919773E1,3.093138337E-3,4.771399498E-2,-2.138071060E-1
2.087919773E1,1.087456942E-2,4.672551155E-2,-1.525859833E-1
2.089919743E1,-2.408958972E-2,-2.114772797E-4,2.721118927E-2
2.090919743E1,-2.902108431E-2,-5.413806438E-2,6.477069855E-2
2.091919743E1,-3.988558054E-2,-7.038545609E-2,5.479812622E-2
2.092919743E1,-1.984919608E-2,-9.695219994E-2,-1.943016052E-2
2.093919743E1,-4.739131033E-2,-1.281809807E-1,-6.224250793E-2
2.094919743E1,-3.350001574E-2,-9.086465836E-2,-1.647796631E-1
2.095919743E1,-3.523159027E-2,-7.676303387E-2,-1.740055084E-1
2.096919743E1,-8.537937701E-2,-3.633379936E-2,-1.212968826E-1
2.097919743E1,-5.761483312E-2,-2.808690071E-3,-5.219078064E-2
2.098919743E1,-5.923767388E-2,1.124143600E-3,-9.626388550E-3
2.099919743E1,-2.530317008E-2,1.984119415E-2,-1.500606537E-2
2.100919743E1,-2.536290884E-2,1.901078224E-2,-4.428672791E-2
2.101919743E1,3.423494101E-2,-8.756041527E-3,-8.786106110E-2
2.102919743E1,2.726410329E-2,-1.088464260E-2,-1.097879410E-1
2.103919743E1,3.535582125E-2,1.444339752E-3,-1.221332550E-1
2.104919743E1,2.015785873E-2,-2.662777901E-3,-1.081666946E-1
2.105919743E1,3.161905706E-2,5.718111992E-3,-1.325616837E-1
2.106919743E1,2.606981993E-2,-2.132415771E-3,-9.477615356E-2
2.107919743E1,2.976831794E-2,2.402245998E-2,-6.663227081E-2
2.108919770E1,3.999973834E-2,9.065032005E-3,-2.618885040E-2
2.109919770E1,3.292542696E-2,2.748048306E-2,-2.404689789E-2
2.110919770E1,3.553633392E-2,1.613724232E-2,-5.290126801E-2
2.111919770E1,5.051113665E-2,8.977055550E-3,-8.646106720E-2
2.112919770E1,4.406787455E-2,-8.140921593E-3,-1.151838303E-1
2.114919743E1,8.762896061E-3,-3.436267376E-2,-1.128921509E-1
2.115919743E1,2.522248030E-2,-2.635324001E-2,-6.995391846E-2
2.116919743E1,1.470986009E-2,-4.909086227E-2,-5.580329895E-2
2.117919743E1,-1.274576783E-2,-4.981184006E-2,-4.171085358E-2
2.118919743E1,-4.216636717E-2,-5.095517635E-2,-8.741474152E-2
2.119919743E1,-2.291418612E-2,-7.790589333E-2,-8.288574219E-2
2.120919743E1,-9.986981750E-3,-4.414796829E-2,-1.454801559E-1
2.121919743E1,-5.160108209E-2,-3.401947021E-2,-2.374839783E-2
2.122919743E1,3.470823169E-3,-4.046344757E-2,-9.116077423E-2
2.123919743E1,7.717773318E-3,-2.128171921E-2,-1.058263779E-1
2.124919743E1,2.355557680E-2,-1.014673710E-2,-2.233457565E-1
2.125919743E1,2.728044987E-2,3.315210342E-3,-1.756601334E-1
2.126919743E1,1.989836991E-2,1.410007477E-3,-1.017866135E-1
2.127919743E1,-1.435875893E-3,-3.140676022E-2,-2.793025970E-2
2.128919743E1,-1.790766418E-2,-7.006859779E-2,-4.013729095E-2
2.129919743E1,-6.007239223E-3,-1.048721075E-1,-1.144895554E-1
2.130919743E1,-5.199898779E-2,-8.687317371E-2,-1.361942291E-1
2.131919743E1,-5.483670533E-2,-6.337416172E-2,-1.172790527E-1
2.132919743E1,-5.489352345E-2,-1.249539852E-2,-1.056613922E-1
2.133919773E1,-5.438436568E-2,4.453969002E-2,-8.701133728E-2
2.134919773E1,2.150171995E-2,9.935247898E-2,-6.356620789E-2
2.135919773E1,7.152133435E-2,1.294876337E-1,-7.114982605E-2
2.136919773E1,6.437061727E-2,1.120754480E-1,-1.311607361E-1
2.137919773E1,8.118052036E-2,8.091855049E-2,-1.263208389E-1
2.139919746E1,-1.565858722E-3,-6.146788597E-2,-9.983158112E-2
2.140919746E1,-1.187729836E-2,-1.611151695E-1,-1.047391891E-1
2.141919746E1,-3.550013900E-2,-1.705968380E-1,-1.026763916E-1
2.142919746E1,-4.749524593E-2,-1.545563936E-1,-9.601116180E-2
2.143919746E1,-4.770876467E-2,-1.183837652E-1,-7.030677795E-2
2.144919746E1,-1.201178133E-2,-1.732635498E-2,-4.941463470E-2
2.145919746E1,-4.969239235E-4,-1.105105877E-2,-4.512310028E-2
2.146919746E1,4.474985600E-2,5.399894714E-2,-2.154827118E-2
2.147919746E1,7.331874222E-2,3.095281124E-2,-3.606224060E-2
2.148919746E1,9.179639071E-2,8.916139603E-3,-4.084968567E-2
2.149919746E1,7.469259202E-2,-8.499383926E-3,-3.364086151E-2
2.150919746E1,2.656012774E-2,-2.823638916E-2,-5.277538300E-2
2.151919746E1,5.632489920E-3,-2.577078342E-2,-6.478309631E-2
2.152919746E1,7.154911757E-3,-1.553571224E-2,-5.769157410E-2
2.153919746E1,-1.001636684E-2,2.369713783E-2,-7.216835022E-2
2.154919746E1,1.148271561E-2,7.316350937E-3,-9.615421295E-2
2.155919776E1,-1.385390759E-3,-7.274866104E-3,-1.129026413E-1
2.156919776E1,1.433491707E-5,4.616856575E-3,-1.368522644E-1
2.157919776E1,2.009823918E-2,7.004022598E-3,-8.899211884E-2
2.158919806E1,3.031714261E-2,-9.905815125E-3,-6.984996796E-2
2.159919806E1,2.367427945E-2,-7.244944572E-3,-7.948684692E-2
2.160919806E1,1.905737817E-2,-1.207995415E-2,-1.082477570E-1
2.161919806E1,3.612778336E-2,-2.338290215E-3,-9.632968903E-2
