"Time (s)","Linear Acceleration x (m/s^2)","Linear Acceleration y (m/s^2)","Linear Acceleration z (m/s^2)"
3.310653900E-2,-2.508735657E-2,3.400045633E-2,2.660655975E-1
4.909775000E-2,2.070754766E-3,7.862895727E-2,1.618356705E-1
6.505844300E-2,1.127189398E-2,7.945084572E-2,-1.866340637E-3
8.101913700E-2,3.116764128E-2,8.737039566E-2,-5.770874023E-2
9.694931200E-2,1.633985341E-2,7.868230343E-3,1.431846619E-2
1.128489710E-1,-1.884502172E-2,5.988776684E-2,-3.921890259E-2
1.288096640E-1,-1.309165359E-2,-5.722355843E-2,-3.081884384E-1
1.447703570E-1,-1.065334678E-2,-2.492451668E-2,3.547840118E-1
1.607615680E-1,-2.836565673E-2,-2.797269821E-2,-3.456516266E-1
1.767222620E-1,-8.922129869E-3,-4.617542028E-2,3.651981354E-1
1.927439900E-1,-9.087115526E-3,1.095694304E-2,-2.428979874E-1
2.086741660E-1,3.801430762E-2,7.168650627E-3,1.400890350E-1
2.246653770E-1,1.206161082E-2,7.755190134E-2,7.138442993E-2
2.406565880E-1,-1.796677709E-2,2.704513073E-2,-2.709932327E-1
2.566172810E-1,-2.911286056E-2,5.564743280E-2,2.305307388E-1
2.725474570E-1,-1.804412901E-2,1.996368170E-2,-2.550010681E-1
2.885691860E-1,2.527318895E-2,-2.012205124E-2,3.108749390E-1
3.045298790E-1,2.592161298E-2,-1.777875423E-2,-1.347923279E-1
3.205516070E-1,5.933535099E-2,-9.236419201E-2,5.385017395E-2
3.365123010E-1,3.236645460E-2,-4.487240314E-2,1.743412018E-2
3.524119590E-1,9.224608541E-3,-1.006767750E-1,-3.589916229E-2
3.683726520E-1,5.599558353E-4,-5.823040009E-2,3.176164627E-1
3.843638630E-1,-7.539868355E-3,-4.683429003E-2,-1.524534225E-1
4.003550740E-1,3.710457683E-2,-5.068790913E-2,3.208675385E-1
4.163157680E-1,2.430577576E-2,-9.600639343E-3,-2.448482513E-1
4.323069780E-1,3.032882512E-2,-3.181010485E-2,1.709756851E-1
4.482371540E-1,2.525836229E-3,-1.144111156E-3,-2.388191223E-2
4.642283650E-1,1.817969978E-2,-7.630342245E-2,-2.968978882E-2
4.802195760E-1,2.504719794E-2,-4.556339979E-2,3.691291809E-1
4.961802700E-1,-1.086817682E-2,-5.784028769E-2,-5.788135529E-2
5.121409630E-1,1.719386876E-2,-1.440918446E-2,4.586725235E-1
5.281321740E-1,-1.104295254E-3,-1.196581125E-2,-1.880693436E-1
5.440928670E-1,2.633288503E-2,-5.316025019E-2,1.085414886E-1
5.600840780E-1,1.521004736E-2,2.021074295E-3,3.387928009E-2
5.760447710E-1,-1.193523407E-2,-6.852409244E-2,-1.008605957E-1
5.919749470E-1,2.119034529E-2,-4.213052988E-2,2.519702911E-2
6.079661580E-1,7.080318034E-2,-5.090996623E-2,2.302408218E-1
6.239268520E-1,9.513998032E-2,-7.870197296E-2,1.314630508E-1
6.399485800E-1,8.754033595E-2,-8.548578620E-2,-1.682443619E-1
6.559092730E-1,5.202633888E-2,-8.188369870E-2,-1.687774658E-1
6.718089320E-1,-2.645082772E-2,-2.865076065E-2,1.485919952E-2
6.877696250E-1,-1.041686535E-1,-1.049393415E-2,2.391538620E-1
7.037303180E-1,-9.061251581E-2,2.615481615E-2,4.182338715E-1
7.197215290E-1,-2.673000097E-3,8.234560490E-3,2.673339844E-1
7.357127400E-1,5.586963892E-2,-8.586138487E-3,-8.441448212E-2
7.516734340E-1,6.282492727E-2,-3.918132186E-2,-2.902708054E-1
7.676951620E-1,-1.255042851E-2,-4.654759169E-2,-2.092390060E-1
7.836558550E-1,-5.309389532E-2,-8.093246818E-2,2.954864502E-2
7.996165490E-1,-4.117740691E-2,-9.083256125E-2,2.085103989E-1
8.156077600E-1,5.129918456E-3,-1.141336858E-1,1.865472794E-1
8.315989710E-1,2.761965245E-2,-1.100946069E-1,4.982948303E-2
8.475596640E-1,4.913370311E-2,-7.086017728E-2,-3.419876099E-2
8.635508750E-1,7.740616798E-3,-2.049398422E-2,3.809928894E-3
8.795420860E-1,-7.203489542E-3,2.409967780E-2,7.529067993E-2
8.955027790E-1,-3.734886646E-3,3.445839882E-2,1.204595566E-1
9.115245080E-1,-1.099959016E-3,5.139291286E-3,6.275749207E-2
9.274546840E-1,2.767514437E-2,-3.155288100E-2,-9.785270691E-2
9.434458950E-1,4.019042850E-2,-5.867716670E-2,-1.580142975E-1
9.594371050E-1,-7.966473699E-3,-6.535264850E-2,2.826213837E-2
9.753977990E-1,-4.164882004E-2,-7.459926605E-2,2.097730637E-1
9.913584920E-1,-1.481346786E-2,-4.454162717E-2,1.903181076E-1
1.007319186E0,3.627727181E-2,-1.833379269E-2,7.283210754E-2
1.023279879E0,4.895410687E-2,-1.163014770E-2,-1.112365723E-2
1.039301607E0,5.455030501E-2,-2.629670501E-2,-5.445194244E-2
1.055262301E0,-4.223510623E-3,-3.253144026E-2,-2.605247498E-2
1.071222994E0,-6.318591535E-2,-4.645781219E-2,2.624607086E-2
1.087214205E0,-3.039523959E-2,-6.632082164E-2,5.239391327E-2
1.103144381E0,9.303092957E-4,-7.039485872E-2,9.021091461E-2
1.119135592E0,3.901274502E-2,-9.510822594E-2,5.209436417E-1
1.135126803E0,2.967372537E-3,-7.901006937E-2,-4.249267578E-1
1.151056978E0,3.120309114E-2,-1.168170497E-1,6.336021423E-2
1.167048189E0,-7.845178246E-3,-4.066006839E-2,-1.115274429E-1
1.183008883E0,2.264236659E-2,-6.419612467E-2,1.326093674E-1
1.199000094E0,-8.540272713E-3,-1.407884061E-2,3.193597794E-1
1.215021822E0,-8.042588830E-3,-3.619565070E-2,8.725166321E-2
1.230951998E0,-1.165248454E-2,-6.358364224E-2,1.066732407E-1
1.246973727E0,-7.809638977E-3,-7.352250814E-2,1.166391373E-1
1.262934420E0,1.449689269E-3,-7.482932508E-2,1.123609543E-1
1.278895113E0,2.474257350E-2,-7.804566622E-2,5.070781708E-2
1.294886324E0,1.179581881E-2,-6.635645032E-2,-2.768516541E-2
1.310847018E0,-1.527653635E-2,-2.368614078E-2,-1.085062027E-1
1.326807711E0,-1.818266511E-2,1.310676336E-3,-8.887195587E-2
1.342768404E0,-4.268959165E-3,-5.862116814E-5,-4.775619507E-2
1.358759615E0,-2.176813781E-2,1.463860273E-3,4.602241516E-2
1.374720309E0,-1.002502441E-2,-3.409603238E-2,1.063461304E-1
1.390711520E0,4.300624132E-4,-6.039535999E-2,1.380758286E-1
1.406641695E0,1.538625360E-2,-7.651150227E-2,6.215953827E-2
1.422632906E0,3.861988336E-2,-6.109526753E-2,-1.047477722E-1
1.438624117E0,1.935759187E-2,-4.628878832E-2,-1.664972305E-1
1.454584811E0,-2.239838243E-3,1.325589418E-2,-2.251338959E-2
1.470606539E0,-2.834364772E-2,3.497403860E-2,2.220153809E-1
1.486536715E0,-5.441716313E-2,3.651863337E-2,2.369775772E-1
1.502527926E0,-6.381854415E-2,2.558615804E-2,-1.115036011E-2
1.518488619E0,-3.516419232E-2,-6.467342377E-3,-1.323785782E-1
1.534449312E0,2.245083451E-3,-1.922398806E-2,-2.059593201E-1
1.550440523E0,-7.624045014E-3,-3.904905915E-2,-7.160377502E-2
1.566370699E0,3.938119113E-2,-2.029150724E-2,3.163900375E-1
1.582361910E0,3.179214150E-2,-4.637908936E-2,3.383913040E-1
1.598322603E0,2.503228188E-2,-4.168683290E-2,-2.425098419E-1
1.614283297E0,4.364425689E-2,-1.146680117E-2,-5.817747116E-1
1.630274508E0,1.045744121E-2,3.043651581E-3,-3.398618698E-1
1.646235201E0,-2.009221911E-2,5.332225561E-2,2.655391693E-1
1.662195895E0,-9.575425088E-2,5.523467064E-2,7.900123596E-1
1.678156588E0,-7.244387269E-2,1.852297783E-2,6.883802414E-1
1.694117281E0,-7.858723402E-3,6.880044937E-3,1.400613785E-1
1.710077975E0,2.841223031E-2,2.736395597E-2,-3.122749329E-1
1.726069186E0,1.521341503E-2,3.018081188E-2,-3.726053238E-1
1.742029879E0,6.031394005E-4,6.055390835E-2,-1.659812927E-1
1.758051607E0,-8.978903294E-3,2.366656065E-2,3.075313568E-2
1.774012301E0,-3.020437062E-2,-2.129793167E-3,1.314468384E-1
1.789911959E0,-4.808101058E-2,-4.820019007E-2,1.298055649E-1
1.805903170E0,-2.096399665E-2,-6.688565016E-2,7.527542114E-2
1.821863863E0,-7.777541876E-3,-1.973450184E-2,6.303787231E-3
1.837855074E0,-8.940547705E-3,7.950484753E-3,2.148056030E-2
1.853815768E0,-1.849861443E-2,5.571579933E-2,3.179073334E-2
1.869806978E0,1.238483191E-2,7.261812687E-2,7.560539246E-2
1.885767672E0,6.209611893E-3,6.265741587E-2,2.172470093E-3
1.901758883E0,2.653126419E-2,7.763993740E-2,-1.000566483E-1
1.917750094E0,2.401538193E-2,4.702496529E-2,-3.728008270E-2
1.933771822E0,-6.767168641E-3,4.685825109E-2,1.818752289E-2
1.949732516E0,-1.124957204E-2,3.483980894E-2,9.280300140E-2
1.965693209E0,1.166495681E-2,2.090835571E-2,1.053047180E-1
1.981684420E0,2.205796540E-2,3.425043821E-2,6.764411926E-2
1.997645113E0,4.724249989E-2,4.994505644E-2,-8.305549622E-3
2.013575289E0,2.202789485E-2,4.283201694E-2,-2.449131012E-2
2.029566500E0,-2.481018007E-2,3.944700956E-2,2.311706543E-3
2.045588228E0,-4.299122095E-2,1.272249222E-2,2.427673340E-2
2.061548922E0,-3.503008187E-2,1.005005836E-2,3.186798096E-2
2.077570650E0,-4.727214575E-3,-2.240180969E-3,5.384159088E-2
2.093531344E0,2.359966189E-2,-1.704353094E-2,4.231548309E-2
2.109431002E0,8.840069175E-3,-4.838132858E-2,-2.469549179E-1
2.125452730E0,-2.509464324E-2,6.707644463E-2,2.298564911E-1
2.141413424E0,-4.669521749E-2,4.163378477E-2,-4.832754135E-1
2.157374117E0,-6.253525615E-3,6.682032347E-2,4.842901230E-1
2.173365328E0,-1.117748022E-2,8.251088858E-2,-3.701343536E-1
2.189326021E0,2.203843743E-2,3.119331598E-2,1.928033829E-1
2.205317232E0,-1.402094960E-2,8.633565903E-2,-1.326036453E-1
2.221277926E0,-1.804910600E-2,2.626842260E-2,4.499149323E-2
2.237299654E0,-2.151753008E-2,2.016103268E-2,3.094482422E-2
2.253260348E0,-5.408897996E-3,-2.927899361E-3,2.889728546E-2
2.269160006E0,-5.993366241E-3,1.977378130E-2,3.400802612E-2
2.285181734E0,1.777140051E-2,9.349644184E-3,-1.612663269E-3
2.301142428E0,9.755805135E-3,2.825862169E-2,-8.565902710E-3
2.317103121E0,4.157543182E-3,1.891899109E-2,4.668712616E-2
2.333124850E0,-2.226999402E-2,3.795313835E-2,5.888843536E-2
2.349024508E0,-2.609729767E-3,3.021419048E-2,5.437946320E-2
2.364985201E0,2.402707934E-2,1.219797134E-2,3.317260742E-2
2.380976412E0,-2.964898944E-3,1.579463482E-2,-5.269432068E-2
2.396967623E0,-1.402528584E-2,3.578311205E-2,-1.196069717E-1
2.412928316E0,-1.739059389E-2,3.020316362E-2,-1.681900024E-2
2.428950045E0,-1.297865808E-2,3.268581629E-2,1.792707443E-1
2.444910738E0,-1.753759384E-2,2.202826738E-2,2.320451736E-1
2.460901949E0,-1.209151745E-2,4.458850622E-2,-9.184837341E-3
2.476893160E0,1.254728436E-2,4.537713528E-2,-1.498336792E-1
2.492853853E0,1.199240983E-2,1.143878698E-2,-9.211444855E-2
2.508814547E0,-1.066562533E-2,2.767431736E-2,-1.138534546E-1
2.524836275E0,-3.005145490E-2,1.792144775E-2,2.089271545E-1
2.540858004E0,3.480586410E-2,3.345566988E-2,3.165273666E-1
2.556849215E0,7.539223135E-2,1.958531141E-2,-4.462718964E-2
2.572809908E0,3.156705946E-2,4.599809647E-3,-3.316555023E-1
2.588770602E0,-1.488068700E-2,1.868367195E-3,-2.602624893E-1
2.604761812E0,-6.526826322E-2,2.288812399E-2,-9.969711304E-3
2.620722506E0,-8.443869650E-2,4.927438498E-2,2.953491211E-1
2.636713717E0,-7.584210485E-2,5.559444427E-2,4.553909302E-1
2.652735445E0,-1.770317554E-3,6.005287170E-2,2.405986786E-1
2.668635103E0,5.429695547E-2,6.063175201E-2,-1.172428131E-1
2.684595797E0,4.109174013E-2,6.106108427E-2,-2.743873596E-1
2.700617525E0,-1.615267992E-2,4.498326778E-2,-1.499509811E-1
2.716578219E0,-6.219223887E-2,3.381103277E-2,-2.265930176E-3
2.732538912E0,-6.578385830E-2,-1.475101709E-2,6.849861145E-2
2.748560641E0,-3.157756478E-2,-2.484774590E-2,5.785083771E-2
2.764490816E0,-2.595815808E-2,-2.275574207E-2,-1.265525818E-2
2.780482027E0,-3.145245463E-2,-7.432281971E-3,-1.845359802E-3
2.796442721E0,-3.141067177E-2,1.070618629E-2,6.162643433E-2
2.812403414E0,-3.054444492E-2,6.493133307E-2,1.157398224E-1
2.828425143E0,-1.782315224E-2,6.552523375E-2,1.533908844E-1
2.844355318E0,3.702443838E-2,5.553239584E-2,-2.432918549E-2
2.860346529E0,2.905090153E-2,3.969657421E-2,-1.255474091E-1
2.876307223E0,2.886687964E-2,3.300100565E-2,-1.553144455E-1
2.892267916E0,-1.321451366E-2,3.291565180E-2,-9.922885895E-2
2.908228609E0,-3.137236089E-2,3.917729855E-2,3.577041626E-2
2.924219820E0,-4.066085070E-2,4.417979717E-2,1.948347092E-1
2.940180514E0,4.461191595E-3,2.818930149E-2,1.842536926E-1
2.956202242E0,2.836941183E-2,2.604275942E-2,8.771800995E-2
2.972162936E0,5.068090186E-2,1.096504927E-2,-3.506278992E-2
2.988123629E0,3.762799501E-2,-2.424657345E-3,-8.133697510E-2
3.004084322E0,1.662806422E-2,-2.790534496E-2,-5.667686462E-3
3.020045016E0,-3.112243116E-2,-2.169853449E-2,7.237052917E-2
3.036066744E0,-4.968346655E-2,-1.456135511E-2,9.786128998E-2
3.052027437E0,-4.370491952E-2,-2.571117878E-2,2.291870117E-2
3.067988131E0,-2.493420243E-2,-2.076637745E-2,2.258110046E-2
3.083979342E0,4.326365888E-3,1.965761185E-4,4.064273834E-2
3.099909518E0,-1.136162877E-2,-5.056560040E-3,-2.955055237E-2
3.115870211E0,1.192357391E-2,-3.263068199E-2,2.382135391E-1
3.131891939E0,-2.509815991E-2,6.687474251E-2,1.248350143E-1
3.147822115E0,-1.451234519E-2,-1.965886354E-2,-4.886054993E-2
3.163782809E0,-3.885131329E-2,1.354891062E-2,5.370197296E-1
3.179774020E0,-4.400731623E-2,-1.762831211E-2,-2.943296432E-1
3.195734713E0,-9.413160384E-3,-6.746530533E-3,3.561191559E-1
3.211725924E0,-7.456548512E-3,-1.857984066E-2,-1.047611237E-2
3.227717135E0,2.035059780E-2,-4.540264606E-3,-4.943847656E-2
3.243677828E0,-1.681509614E-2,1.085394621E-2,-4.536819458E-2
3.259669039E0,-5.409768224E-2,5.037248135E-3,-4.369258881E-2
3.275660250E0,-1.464430243E-2,1.039916277E-2,-4.674625397E-2
3.291620943E0,-1.085752994E-2,4.771590233E-3,-1.622381210E-1
3.307612154E0,1.227938384E-2,-6.594032049E-3,-1.890830994E-1
3.323572848E0,2.253811806E-2,-5.102336407E-3,3.132848740E-1
3.339564059E0,-1.729704440E-2,-3.547930717E-2,8.209638596E-1
3.355524752E0,-4.966037720E-2,-5.876278877E-2,5.130519867E-1
3.371515963E0,-5.102928728E-2,-6.497481465E-2,-1.822242737E-1
3.387537691E0,-1.006330550E-2,-1.418447495E-2,-5.142736435E-1
3.403498385E0,-1.866315305E-2,6.758564711E-2,-3.923311234E-1
3.419489596E0,-1.739405841E-2,7.784366608E-2,-2.255487442E-1
3.435450289E0,6.813749671E-2,9.535637498E-2,2.210168839E-1
3.451410982E0,9.134416282E-2,4.208877683E-2,4.763917923E-1
3.467432711E0,3.992366046E-2,-7.707127929E-2,2.200384140E-1
3.483393404E0,-1.211621612E-2,-1.312471330E-1,-1.557931900E-1
3.499384615E0,-4.777068645E-2,-1.457203925E-1,-2.086887360E-1
3.515375826E0,-3.678594530E-2,-7.268357277E-2,-3.933143616E-2
3.531336520E0,-4.779048264E-2,2.349457145E-2,1.994009018E-1
3.547297213E0,-5.267180502E-2,8.957979083E-2,3.211193085E-1
3.563288424E0,2.191345394E-2,1.297358572E-1,1.248226166E-1
3.579218600E0,2.985120192E-2,9.427526593E-2,-1.144180298E-1
3.595240328E0,1.465141028E-2,4.229524732E-2,-2.437429428E-1
3.611201021E0,-1.289249957E-2,-1.343303919E-2,-1.315145493E-1
3.627161715E0,-5.898466706E-2,-5.766403675E-2,6.433677673E-2
3.643152926E0,-3.750666231E-2,-6.956300139E-2,2.171564102E-1
3.659113619E0,-2.290637046E-2,-7.864215970E-2,1.642665863E-1
3.675104830E0,2.000048384E-2,-3.544348478E-2,-8.962440491E-2
3.691065523E0,2.867653966E-3,1.471507549E-2,-1.951618195E-1
3.707026217E0,-4.572325200E-2,5.454611778E-2,-1.165065765E-1
3.723017428E0,-5.391095579E-2,8.580955863E-2,6.745910645E-2
3.738978121E0,-1.938527077E-2,7.002556324E-2,1.055526733E-1
3.754999850E0,2.812241018E-2,3.327894211E-2,-7.155132294E-2
3.770960543E0,5.548990518E-2,-1.675575972E-2,-1.388835907E-2
3.786921236E0,1.485739648E-2,-6.816694140E-2,3.455686569E-1
3.802912447E0,-4.612395912E-2,-7.703694701E-2,4.156370163E-1
3.818903658E0,-6.594992429E-2,-3.904184699E-2,1.388263702E-1
3.834894869E0,-1.415941864E-2,1.651218534E-2,-1.882514954E-1
3.850855562E0,5.310894921E-2,8.982229233E-2,-2.211942673E-1
3.866816256E0,3.468090668E-2,1.121354699E-1,-7.514953613E-4
3.882807467E0,-2.121295780E-2,7.330712676E-2,1.908025742E-1
3.898829195E0,-7.850984484E-2,9.730964899E-3,8.791637421E-2
3.914789889E0,-7.410292327E-2,-5.825030804E-2,-7.963562012E-2
3.930750582E0,-1.099374145E-2,-9.654417634E-2,-9.412765503E-2
3.946711275E0,2.794626355E-2,-1.213863492E-1,-2.500438690E-2
3.962702486E0,3.946599737E-2,-9.447020292E-2,9.673786163E-2
3.978663180E0,2.038933337E-2,-5.309575796E-2,1.347980499E-1
3.994623873E0,-1.077724993E-2,-1.470190287E-2,7.483100891E-2
4.010584566E0,-4.980701208E-2,2.097275853E-2,5.296707153E-3
4.026514742E0,-3.962679952E-2,6.591472030E-2,-7.868576050E-2
4.042536471E0,1.166803390E-2,7.792332768E-2,-4.775047302E-3
4.058497164E0,-1.172186434E-2,6.723755598E-2,8.823776245E-2
4.074488375E0,9.552940726E-3,4.595884681E-2,4.242992401E-2
4.090510103E0,-2.326205373E-2,1.288208365E-2,-7.282066345E-2
4.106409762E0,-5.386013538E-2,1.248038709E-1,1.614313126E-1
4.122370455E0,4.215599597E-2,-5.315399170E-2,2.998523712E-1
4.138331148E0,-2.270795405E-3,1.867729425E-2,-3.230028152E-1
4.154322359E0,1.012945175E-2,-3.675815463E-2,3.089017868E-1
4.170283053E0,-6.652517617E-2,2.706936002E-2,2.205295563E-1
4.186274264E0,-3.551105410E-2,-3.170377016E-2,-3.345041275E-1
4.202265475E0,-2.926956862E-2,-2.849501371E-2,2.500247955E-1
4.218226168E0,-3.325761110E-2,-3.189906478E-2,-1.640462875E-1
4.234186861E0,3.597363457E-2,-2.538979053E-3,-7.089328766E-2
4.250208590E0,7.460184395E-2,2.601227164E-2,2.665081024E-1
4.266108248E0,2.835637331E-2,2.395063639E-2,1.248416901E-1
4.282068941E0,2.583708614E-3,-6.554514170E-3,-1.841545105E-1
4.298060152E0,-2.332802862E-2,-3.456962109E-2,-3.017673492E-1
4.314051363E0,-2.274168283E-2,-2.219218016E-2,-5.329322815E-2
4.330012057E0,-4.480460286E-2,3.275346756E-2,2.715673447E-1
4.346033785E0,-5.953559279E-2,2.606600523E-2,4.270906448E-1
4.362024996E0,-2.417252958E-2,1.785308123E-3,2.811326981E-1
4.378016207E0,8.450597525E-3,-2.972483635E-3,-1.255607605E-1
4.394007418E0,2.544696257E-2,-1.420730352E-2,-3.623733521E-1
4.409968111E0,-1.502300799E-2,-3.638029099E-2,-2.594995499E-1
4.425989840E0,-5.872020870E-2,-4.583242536E-2,6.585407257E-2
4.441981051E0,-5.956091359E-2,-6.300327182E-2,2.620382309E-1
4.457972262E0,-2.108624578E-2,-6.671506166E-2,1.304998398E-1
4.473963473E0,1.008640230E-2,-7.056802511E-2,-1.283454895E-2
4.489924166E0,-9.751655161E-3,-2.513951063E-2,-2.445030212E-2
4.505884859E0,-3.164291382E-3,3.765904903E-2,2.377986908E-2
4.521876070E0,-4.714476317E-2,8.555543423E-2,4.809284210E-2
4.537836764E0,-5.668635666E-2,8.747673035E-2,9.157657623E-2
4.553827975E0,-3.922852129E-2,5.262038112E-2,6.807422638E-2
4.569819186E0,9.219117463E-3,-3.514856100E-3,-1.924371719E-1
4.585718844E0,2.572218701E-2,-1.758760214E-2,-1.753740311E-1
4.601679537E0,-1.450203359E-2,-6.887537241E-2,1.168670654E-1
4.617670748E0,-3.933785856E-2,-6.734749675E-2,2.440118790E-1
4.633661959E0,-1.850090176E-2,-5.153152347E-2,1.295633316E-1
4.649622652E0,1.713325828E-2,-3.112959862E-2,-4.941749573E-2
4.665644381E0,1.564275473E-2,1.932001114E-2,-4.170227051E-2
4.681574557E0,-1.380978525E-2,2.675622702E-2,2.816295624E-2
4.697565768E0,-4.439076781E-2,1.404353976E-2,5.727863312E-2
4.713526461E0,-5.801136047E-2,-5.933135748E-3,1.936817169E-2
4.729487154E0,-5.822119862E-2,-8.983582258E-3,-1.615715027E-2
4.745447848E0,-4.230774939E-3,-4.233273864E-2,3.340721130E-3
4.761439059E0,-1.525700092E-2,-2.916988730E-2,-6.819057465E-2
4.777399752E0,-1.936013997E-2,-1.033544540E-4,-5.600261688E-2
4.793390963E0,-2.802988887E-2,2.024590969E-2,6.627750397E-2
4.809412691E0,-2.395973355E-2,3.416562080E-2,1.599206924E-1
4.825342867E0,-1.853288710E-2,3.981727362E-2,1.508121490E-1
4.841364596E0,-1.632512361E-2,2.406233549E-2,5.326080322E-2
4.857325289E0,-6.498560309E-3,1.187443733E-3,-8.976745605E-2
4.873285982E0,-1.286766678E-2,7.222473621E-3,-1.706943512E-1
4.889307711E0,-1.624673605E-2,2.445256710E-2,-1.201782227E-1
4.905268404E0,-2.802360803E-2,1.710182428E-2,1.881504059E-2
4.921290133E0,-2.224629372E-2,1.058828831E-2,1.818475723E-1
4.937220309E0,5.903765559E-4,4.061341286E-3,2.087135315E-1
4.953211520E0,-1.132920384E-2,-2.013623714E-3,9.459877014E-2
4.969202730E0,-3.172022849E-2,7.347822189E-3,-1.128005981E-1
4.985163424E0,-1.948104054E-2,2.242308855E-2,-1.264820099E-1
5.001124117E0,-4.514412582E-2,3.298431635E-2,-1.668224335E-1
5.017115328E0,-1.380305737E-2,1.579922438E-2,-8.794784546E-3
5.033076021E0,9.884923697E-3,6.652396917E-2,2.880563736E-1
5.049036715E0,2.573443577E-2,7.076501846E-3,1.352529526E-1
5.065027926E0,3.392442688E-2,3.324747086E-3,-1.968441010E-1
5.081019137E0,-1.776255667E-3,-4.289788008E-2,-3.423690796E-1
5.096949312E0,-8.365228772E-3,-7.789134979E-3,-1.627473831E-1
5.112971041E0,-2.138366550E-2,-7.850348949E-3,-2.164936066E-2
5.128962252E0,-6.509457529E-2,4.650074244E-2,1.027212143E0
5.144892428E0,-8.796578646E-2,9.703487158E-2,1.557731628E-2
5.160853121E0,-2.852313221E-3,4.953873158E-2,4.435520172E-1
5.176844332E0,-1.490285993E-2,1.114176512E-1,-3.447895050E-1
5.192835543E0,-1.651445031E-2,2.876079082E-2,-2.790031433E-1
5.208796236E0,-6.173165143E-2,4.960572720E-2,-2.786054611E-1
5.224787447E0,-4.051873088E-2,1.187008619E-2,8.544731140E-2
5.240717623E0,-1.016655564E-2,-4.270350933E-2,2.509832382E-1
5.256708834E0,-7.666260004E-3,-8.932590485E-2,1.823873520E-1
5.272669527E0,-2.216246724E-2,-9.881025553E-2,1.831245422E-2
5.288630221E0,-2.840531617E-2,-3.835606575E-2,-6.199455261E-2
5.304590914E0,-7.573118806E-2,4.189985991E-2,-3.239822388E-2
5.320582125E0,-5.429321527E-2,9.050285816E-2,4.733181000E-2
5.336573336E0,-3.669256717E-2,1.063634157E-1,5.757999420E-2
5.352564547E0,1.571039110E-2,8.934903145E-2,-1.840114594E-2
5.368525240E0,1.936460659E-2,4.733389616E-2,-1.064653397E-1
5.384516451E0,2.175535262E-2,1.750081778E-2,-1.013822556E-1
5.400477145E0,-5.110506713E-2,-5.557537079E-3,1.688003540E-3
5.416468355E0,-3.029436618E-2,-2.075594664E-2,9.512710571E-2
5.432429049E0,-3.420837969E-2,6.776034832E-3,1.099901199E-1
5.448389742E0,5.842879415E-3,5.403894186E-2,9.150028229E-2
5.464350436E0,7.923714817E-3,5.652964115E-2,7.753849030E-2
5.480341646E0,-8.105501533E-3,5.328947306E-2,-2.548217773E-3
5.496302340E0,-3.835597634E-2,7.310622931E-2,-4.007625580E-2
5.512263033E0,-5.107395351E-2,4.206693172E-2,-2.268695831E-2
5.528223727E0,-3.136776388E-3,4.392993450E-2,2.328205109E-2
5.544214937E0,2.104382962E-2,-8.467793465E-3,2.848052979E-2
5.560175631E0,-1.277291775E-2,-3.444135189E-3,4.951477051E-3
5.576166842E0,-4.258377105E-2,-3.225207329E-3,-1.820564270E-3
5.592158053E0,-7.741185278E-2,-1.640892029E-2,-1.346874237E-2
5.608118746E0,-5.416680127E-2,2.601820230E-2,-3.613471985E-3
5.624140475E0,-2.513626963E-2,3.758734465E-2,3.734874725E-2
5.640101168E0,2.059014887E-2,4.556453228E-2,4.251098633E-2
5.656092379E0,1.352106780E-2,5.037671328E-2,3.337955475E-2
5.672083590E0,-2.497942746E-2,2.610838413E-2,1.470470428E-2
5.688044283E0,-3.223362565E-2,2.610194683E-2,5.580902100E-3
5.704004977E0,-5.368256569E-2,2.465969324E-2,-2.039146423E-2
5.719996187E0,-2.502594888E-2,1.934546232E-2,-9.603500366E-4
5.735956881E0,5.834504962E-3,1.484447718E-2,1.121044159E-2
5.751948092E0,7.993485779E-3,2.494287491E-2,3.054141998E-2
5.767939303E0,-1.168129593E-2,1.316565275E-2,4.990196228E-2
5.783869478E0,-2.875141054E-2,2.733153105E-2,1.663112640E-2
5.799891207E0,-4.573481530E-2,2.741760015E-2,2.487182617E-3
5.815851900E0,-2.896657586E-2,2.293425798E-2,-4.493713379E-3
5.831843111E0,-2.614438534E-3,4.038840532E-2,2.918910980E-2
5.847803805E0,-1.474519819E-2,4.069149494E-2,5.333423615E-2
5.863795016E0,-2.674344927E-2,1.622110605E-2,2.728176117E-2
5.879755709E0,-4.806148261E-2,3.728443384E-2,-2.510833740E-2
5.895746920E0,-4.559116811E-2,2.799069881E-2,4.213619232E-2
5.911738131E0,-4.292510450E-2,3.535777330E-2,6.390285492E-2
5.927698824E0,8.943155408E-4,3.538817167E-2,-4.120540619E-2
5.943720553E0,1.327904314E-2,3.192067146E-2,-1.272878647E-1
5.959650728E0,-7.996372879E-3,1.715797186E-2,6.592750549E-3
5.975641939E0,-6.535105407E-2,1.896959543E-2,2.266826630E-1
5.991633150E0,-7.953019440E-2,3.301852942E-2,1.982202530E-1
6.007593844E0,-5.700638145E-2,1.387411356E-2,-5.963897705E-2
6.023585055E0,-5.397677422E-3,1.263540983E-2,-1.571922302E-1
6.039545748E0,3.473814204E-2,6.261765957E-3,-1.211252213E-1
6.055475924E0,-1.602259278E-2,1.206064224E-2,-8.316040039E-2
6.071497652E0,-5.986402184E-2,4.384827614E-2,3.113355637E-1
6.087458346E0,4.193589091E-3,3.188365698E-2,2.993440628E-1
6.103358004E0,6.469398737E-2,2.614623308E-2,-1.334476471E-1
6.119379732E0,7.455933094E-2,-3.179192543E-2,-6.814317703E-1
6.135340426E0,-1.017371938E-2,5.819797516E-2,2.184104919E-2
6.151301119E0,-7.816929370E-2,4.024147987E-2,-3.457908630E-1
6.167292330E0,-1.315062642E-1,2.286159992E-2,8.166694641E-1
6.183253023E0,-1.107680202E-1,4.789167643E-2,-9.441375732E-3
6.199244234E0,2.870087326E-2,1.486295462E-2,2.112455368E-1
6.215204928E0,7.798233628E-2,4.530996084E-2,-2.297277451E-1
6.231196139E0,4.739280790E-2,3.241038322E-2,-2.480707169E-1
6.247217867E0,-4.205696285E-2,1.437789202E-2,-8.753681183E-2
6.263148043E0,-1.009182930E-1,-2.542734146E-3,7.503795624E-2
6.279169771E0,-8.213570714E-2,-3.499758244E-2,1.347846985E-1
6.295130465E0,-3.151852265E-2,-3.583973646E-2,7.740879059E-2
6.311121676E0,2.234645188E-3,-1.812905073E-2,1.769924164E-2
6.327112887E0,4.634153098E-3,3.669613600E-2,-1.340103149E-2
6.343012545E0,-4.023771733E-2,8.777636290E-2,5.676269531E-3
6.358973238E0,-2.743336558E-2,8.833819628E-2,3.674888611E-2
6.374964449E0,-2.374104410E-2,5.868762732E-2,6.557941437E-2
6.390955660E0,1.686016843E-2,-1.070201397E-3,-4.670429230E-2
6.406916353E0,1.519856602E-2,-2.831697464E-3,-7.525348663E-2
6.422877047E0,-7.404129952E-3,-3.419429064E-2,-8.198738098E-3
6.438868258E0,-3.147966415E-2,2.360361814E-2,1.066884995E-1
6.454889986E0,-3.116805851E-2,3.486442566E-2,1.139450073E-1
6.470881197E0,-1.380942389E-2,5.753135681E-2,2.070236206E-2
6.486841891E0,1.792820171E-2,7.982033491E-2,-5.358982086E-2
6.502802584E0,2.390073612E-2,7.793056965E-2,-3.497314453E-2
6.518793795E0,-1.478704810E-2,7.059818506E-2,2.632141113E-2
6.534723971E0,-2.247218043E-2,4.649221897E-2,6.824016571E-2
6.550715182E0,-6.964238733E-2,6.794989109E-3,4.302692413E-2
6.566675875E0,-4.077654704E-2,-1.716679335E-2,-2.298736572E-2
6.582697603E0,-1.423884556E-2,-4.340875149E-2,-6.766796112E-2
6.598658297E0,-1.431967318E-2,-5.087941885E-2,-3.261661530E-2
6.614649508E0,2.176266164E-3,-3.319859505E-2,5.653095245E-2
6.630640719E0,-3.266638145E-2,9.781897068E-3,8.750534058E-2
6.646601412E0,-4.025581479E-2,1.055419445E-2,7.244682312E-2
6.662592623E0,-2.672374621E-2,6.603485346E-2,-1.861858368E-2
6.678553316E0,-2.225963399E-2,6.388974190E-2,-2.163028717E-2
6.694544527E0,-6.389040500E-3,5.750679970E-2,-6.116867065E-3
6.710535738E0,-2.610440180E-2,2.889990807E-2,3.341865540E-2
6.726496432E0,-2.622761950E-2,3.038764000E-2,3.953838348E-2
6.742457125E0,-3.823893517E-2,2.667903900E-3,-6.958961487E-3
6.758448336E0,-4.053667188E-2,-3.183835745E-2,2.075290680E-2
6.774378512E0,-1.612380147E-4,-3.233081102E-2,1.971435547E-2
6.790400240E0,1.332756132E-3,-4.216718674E-2,3.783035278E-2
6.806360934E0,-4.801541567E-3,-3.071618080E-2,2.485656738E-2
6.822321627E0,-2.066520974E-2,-2.680498362E-2,1.432228088E-2
6.838312838E0,-3.155930340E-2,-8.067727089E-3,1.381874084E-3
6.854304049E0,-1.828762144E-2,1.340746880E-2,5.198478699E-3
6.870264742E0,-1.025649533E-2,4.473805428E-3,3.532409668E-2
6.886225436E0,-4.388596863E-3,1.448845863E-2,6.070041656E-2
6.902186129E0,-3.660956025E-2,4.620432854E-3,1.671123505E-2
6.918177340E0,-1.696456224E-3,-1.514124870E-2,-5.836105347E-2
6.934107516E0,-1.760019362E-2,-1.701354980E-2,-5.208110809E-2
6.950098727E0,-3.513019904E-2,-1.485246420E-2,4.407882690E-3
6.966089937E0,-1.789361238E-2,-2.890706062E-3,1.542911530E-1
6.981989596E0,-2.189736068E-2,8.216261864E-3,2.086133957E-1
6.998011324E0,2.009384334E-3,-1.794874668E-3,6.925487518E-2
7.013972018E0,-1.074422151E-2,-6.543099880E-3,-2.690219879E-2
7.029993746E0,-3.150120750E-2,-2.625316381E-2,-3.217029572E-2
7.046015475E0,-6.533087790E-2,-1.870647073E-2,-1.573114395E-1
7.061945650E0,-2.209119685E-2,-2.478557825E-2,-1.606035233E-1
7.077906344E0,5.720386654E-2,-2.837598324E-3,1.735286713E-1
7.093897555E0,8.286418021E-2,-3.029176593E-2,2.684631348E-1
7.109858248E0,2.255310118E-2,-3.843832016E-2,-3.449468613E-1
7.125818941E0,2.248454280E-2,-8.846560121E-2,7.121944427E-2
7.141810152E0,-1.114372164E-1,2.359065413E-2,8.021259308E-2
7.157801363E0,-8.714940399E-2,-2.966207266E-2,3.885269165E-2
7.173792574E0,-8.608521521E-2,1.364800334E-2,8.428249359E-1
7.189753268E0,-1.415495574E-2,3.942203522E-2,-2.394676208E-2
7.205713961E0,7.673182338E-2,2.497574687E-2,2.707281113E-1
7.221613619E0,5.133665726E-2,-1.667344570E-2,-2.941751480E-1
7.237574312E0,-5.710359290E-2,-3.527128696E-2,-3.159360886E-1
7.253565523E0,-1.075509042E-1,-4.392361641E-2,-1.224966049E-1
7.269526217E0,-1.031114832E-1,-5.960184336E-2,1.833982468E-1
7.285486910E0,-4.432441294E-2,-6.723597646E-2,3.027057648E-1
7.301478121E0,-1.846104860E-4,-7.726284862E-2,1.948194504E-1
7.317469332E0,-2.227729186E-3,-5.442592502E-2,-2.070236206E-2
7.333460543E0,-2.376678027E-2,-1.087129116E-2,-8.304786682E-2
7.349451754E0,-5.174651742E-2,3.903168440E-2,-6.172466278E-2
7.365412447E0,-2.270617336E-2,5.047681928E-2,3.151035309E-2
7.381373141E0,8.443291299E-3,5.471029878E-2,1.531753540E-1
7.397364352E0,2.633713931E-2,7.584691048E-3,4.294586182E-2
7.413355562E0,5.728202686E-2,-5.423915386E-2,-1.751537323E-1
7.429316256E0,-2.083788626E-3,-7.929287851E-2,-6.287860870E-2
7.445276949E0,-2.835961059E-2,-7.859499753E-2,1.427259445E-1
7.461237643E0,-1.035109721E-2,-2.537310123E-2,1.903944016E-1
7.477228853E0,1.562918723E-2,9.412616491E-3,1.352291107E-1
7.493189547E0,3.907743096E-2,1.603752375E-3,-1.325988770E-2
7.509150240E0,1.844912395E-2,1.025038958E-2,-5.646038055E-2
7.525141451E0,-4.563574214E-3,-2.121309936E-2,-1.593685150E-2
7.541102145E0,-3.455455974E-2,-5.284835398E-2,-1.616573334E-2
7.557032320E0,-2.868320979E-2,-5.250780284E-2,5.142211914E-3
7.573023531E0,-5.374044552E-2,-6.658041477E-2,3.124809265E-2
7.588984225E0,-1.626754552E-2,-6.419764459E-2,6.694984436E-2
7.604944918E0,4.771911539E-3,-3.862617910E-2,6.197452545E-2
7.620875094E0,6.188472733E-3,-2.786979079E-2,-6.269550323E-2
7.636835787E0,-4.123003408E-2,-1.282824576E-2,-1.035957336E-1
7.652796480E0,-5.479587242E-2,1.457232237E-2,-3.440189362E-2
7.668818209E0,-7.215133309E-2,1.203013957E-2,8.985900879E-2
7.684809420E0,-2.343399450E-2,1.500155032E-2,1.543064117E-1
7.700709078E0,1.339840051E-2,-2.304633707E-2,1.038885117E-1
7.716730807E0,6.153514609E-3,-1.514456421E-2,2.237987518E-2
7.732691500E0,-4.499918967E-2,-2.608793229E-2,1.988124847E-2
7.748652193E0,-6.214842945E-2,-4.269573092E-2,3.008842468E-3
7.764612887E0,-1.391385123E-2,-1.274099946E-2,-3.780841827E-2
7.780604098E0,1.940914989E-2,-3.664020076E-2,-3.073978424E-2
7.796564791E0,8.101182058E-3,-1.951462775E-2,-1.647567749E-2
7.812556002E0,-2.267171815E-2,-3.602530435E-2,1.696014404E-2
7.828547213E0,-3.264458850E-2,-2.720057964E-2,1.509704590E-1
7.844507906E0,-2.780848369E-2,-4.602829739E-2,2.562789917E-1
7.860529635E0,-1.678347588E-2,-5.548445135E-2,5.515575409E-2
7.876459811E0,-4.037313908E-2,-3.480935469E-2,-1.435680389E-1
7.892451021E0,-2.341376245E-2,-1.214703731E-2,-5.500316620E-2
7.908442232E0,-6.233401224E-2,-1.437985897E-2,-9.812259674E-2
7.924402926E0,-4.156955332E-2,-1.923143119E-2,-1.268730164E-1
7.940394137E0,3.056580760E-2,-1.669013500E-2,3.208446503E-1
7.956324312E0,2.922130935E-2,-5.844083056E-2,3.352327347E-1
7.972285006E0,7.689373568E-3,-4.894195870E-2,-8.851909637E-2
7.988245699E0,-1.336985640E-2,-7.517991960E-2,-3.638257980E-1
8.004206393E0,-5.156664178E-3,-3.519016132E-2,-2.775754929E-1
8.020167086E0,-2.894091234E-2,-8.155629039E-4,1.535120010E-1
8.036158297E0,-7.790046930E-2,1.661864668E-2,5.726375580E-1
8.052180025E0,-6.148858368E-2,6.136626005E-3,5.295562744E-1
8.068171236E0,-1.859191433E-2,-1.641120762E-2,3.626346588E-2
8.084131930E0,3.289058805E-5,-3.400317580E-2,-4.306802750E-1
8.100123141E0,4.424523562E-3,-4.708465189E-2,-5.024976730E-1
8.116083834E0,-2.142444439E-2,-6.794132292E-2,-6.388721466E-1
8.132044527E0,1.803217456E-3,-9.359513968E-2,5.344161987E-1
8.148066256E0,-6.266281009E-2,-7.616335899E-2,-1.838684082E-3
8.164026949E0,-1.632049680E-4,-1.738142371E-1,1.680545807E-1
8.180018160E0,-2.653641254E-2,-1.027988791E-1,2.903652191E-2
8.195978853E0,6.710298359E-3,-1.340929270E-1,-1.027765274E-1
8.211970064E0,-1.662231423E-2,-1.821313798E-2,3.599643707E-2
8.227961275E0,1.321028639E-2,5.226118490E-2,1.867694855E-1
8.243921969E0,-3.136426955E-2,9.429261833E-2,1.915445328E-1
8.259852145E0,-2.445092611E-2,6.097002700E-2,-8.133125305E-2
8.275873873E0,6.173470989E-3,1.869980246E-2,-2.535848618E-1
8.291834566E0,-1.071871445E-2,5.463883281E-4,-1.002235413E-1
8.307825777E0,-4.526197165E-2,-6.211326271E-2,5.551052094E-2
8.323786471E0,-6.017549708E-2,-5.232807994E-2,1.083030701E-1
8.339808199E0,-3.299578279E-2,-5.158992112E-2,8.212184906E-2
8.355738375E0,-2.619272843E-2,-3.843870759E-2,5.359172821E-2
8.371729586E0,-1.744013652E-2,-1.870821416E-2,4.664421082E-2
8.387720797E0,-1.021947619E-2,-1.128381491E-2,6.127643585E-2
8.403681490E0,-6.629759818E-2,-1.411020756E-3,1.847743988E-2
8.419672701E0,-1.098527312E-1,6.977707148E-3,-3.388118744E-2
8.435602877E0,-9.185361862E-2,6.741821766E-3,-3.594970703E-2
8.451533053E0,-1.360254548E-2,-1.207348704E-2,-2.103805542E-3
8.467524264E0,3.060438111E-2,2.910196781E-5,-1.759529114E-3
8.483545992E0,3.123574518E-2,6.696492434E-3,1.298618317E-2
8.499506686E0,1.256956160E-2,1.492115855E-2,7.087230682E-2
8.515467379E0,-1.615936309E-2,3.132033348E-2,6.657505035E-2
8.531458590E0,-1.291315816E-2,5.101120472E-2,8.150196075E-2
8.547419283E0,-3.891782835E-2,5.307933688E-2,6.297492981E-2
8.563379977E0,-3.744889051E-2,2.624613047E-2,6.125450134E-2
8.579340670E0,-2.200427838E-2,7.555902004E-3,4.038906097E-2
8.595331881E0,-8.414965123E-4,6.712406874E-3,2.191448212E-2
8.611292574E0,5.610760301E-3,-1.807934046E-2,-5.648136139E-2
8.627283785E0,-3.610715270E-3,-1.735717058E-3,-1.469478607E-1
8.643305514E0,-1.097576320E-2,2.076506615E-3,-1.202659607E-1
8.659266207E0,-2.325718477E-2,-6.304621696E-3,4.040336609E-2
8.675226900E0,-3.602902591E-2,1.188206673E-2,2.251110077E-1
8.691218111E0,-4.024040699E-2,1.384738088E-2,1.395874023E-1
8.707178805E0,-1.961909607E-2,1.183485985E-2,6.393432617E-3
8.723139498E0,-1.739957556E-2,9.595930576E-3,-8.366298676E-2
8.739130709E0,-1.657654718E-2,2.557224035E-2,-1.499414444E-1
8.755091402E0,3.757977858E-3,5.611562729E-2,1.690158844E-1
8.771082613E0,4.077930376E-2,7.747763395E-2,4.063062668E-1
8.787134859E0,3.623944148E-2,6.551200151E-2,8.690738678E-2
8.803095553E0,1.009702682E-3,1.941305399E-2,-4.219474792E-1
8.819056246E0,-2.287273854E-2,6.527483463E-3,-5.051374435E-1
8.835047457E0,-3.216730431E-2,2.597588301E-2,-1.292629242E-1
8.850977633E0,-5.733020231E-2,3.144055605E-2,3.709421158E-1
8.866938326E0,-1.104138419E-1,4.762411118E-3,6.467142105E-1
8.882960055E0,-9.205065668E-2,1.055228710E-2,3.775539398E-1
8.898890230E0,-3.257153556E-2,1.428908110E-2,-7.531166077E-2
8.914850924E0,7.017677650E-3,3.179234266E-2,-2.913312912E-1
8.930842135E0,1.710569113E-2,3.515148163E-2,-2.422018051E-1
8.946833346E0,-4.451946542E-2,6.587523222E-2,-6.433200836E-2
8.962794039E0,-4.814022034E-2,3.996431828E-2,6.304359436E-2
8.978754732E0,-4.650929198E-2,1.331257820E-2,6.119251251E-2
8.994745943E0,-4.277256876E-2,-1.704943180E-2,1.394939423E-2
9.010676119E0,-2.974154428E-2,-2.368348837E-2,4.574012756E-2
9.026697848E0,-3.522172943E-2,3.069937229E-3,9.430980682E-2
9.042658541E0,-2.837630361E-2,4.517918825E-2,9.272003174E-2
9.058558199E0,3.372125328E-3,7.325738668E-2,6.256103516E-2
9.074518893E0,1.585733145E-3,6.822109222E-2,-6.338024139E-2
9.090510103E0,2.505727112E-3,6.558495760E-2,-1.009092331E-1
9.106501314E0,1.723034680E-2,6.111556292E-2,1.318759918E-1
9.122462008E0,5.213506520E-4,2.300328016E-2,-3.729314804E-1
9.138483736E0,-2.292785794E-2,3.472656012E-2,5.372734070E-1
9.154474947E0,-4.846948758E-2,4.808712006E-2,-2.617197037E-1
9.170466158E0,-2.161907032E-2,-1.053094864E-2,3.544769287E-1
9.186457369E0,-2.745823562E-2,6.588244438E-2,-6.369876862E-2
9.202418062E0,-2.463418990E-2,2.072852850E-2,3.906250000E-3
9.218348238E0,2.310443670E-3,6.050759554E-2,9.057521820E-2
9.234308932E0,-2.458412200E-2,5.364531279E-2,6.961154938E-2
9.250269625E0,-3.183283284E-2,2.918428183E-2,-1.831054688E-2
9.266291353E0,-3.670316562E-2,1.243823767E-2,-5.120468140E-2
9.282221529E0,-4.422322288E-2,-1.951569319E-2,-6.747245789E-2
9.298182223E0,-4.958588630E-2,5.286097527E-3,1.187896729E-2
9.314142916E0,-8.967854083E-3,1.812887192E-2,9.602355957E-2
9.330134127E0,-1.274619251E-2,2.464288473E-2,7.736110687E-2
9.346094820E0,-1.904226840E-2,4.913985729E-2,-1.302051544E-2
9.362055514E0,-3.049278259E-2,6.397044659E-2,-2.198696136E-2
9.378016207E0,-4.728384688E-2,4.188358784E-2,-2.629089355E-2
9.394007418E0,-5.014239624E-2,5.736082792E-2,-9.197235107E-3
9.409968111E0,-4.072886333E-2,4.705542326E-2,5.573272705E-2
9.425989840E0,-2.638589963E-2,4.784703255E-2,6.567859650E-2
9.441950533E0,-1.430572569E-2,2.111029625E-2,3.742885590E-2
9.457850191E0,-9.449947625E-3,2.290463448E-2,-1.713466644E-2
9.473810885E0,-3.105016798E-2,1.131165028E-2,-1.911544800E-2
9.489802096E0,-4.515558481E-3,2.018111944E-2,-1.642894745E-2
9.505793307E0,-1.871019602E-2,3.913336992E-2,5.769729614E-4
9.521754000E0,-1.401866227E-2,3.174585104E-2,3.194713593E-2
9.537714693E0,-2.092536539E-2,3.594893217E-2,4.420280457E-2
9.553705904E0,5.406863987E-3,4.449564219E-2,3.734588623E-2
9.569636080E0,-1.418445632E-2,2.204263210E-2,-7.829666138E-3
9.585596773E0,-3.187219054E-2,2.190923691E-2,-2.913951874E-2
9.601557467E0,-2.508928627E-2,2.046775818E-2,2.127647400E-2
9.617579195E0,-2.701463550E-2,4.297280312E-2,9.803104401E-2
9.633509371E0,-3.092299029E-2,4.518038034E-2,4.800605774E-2
9.649500582E0,-2.044770122E-2,3.642272949E-2,-2.582550049E-2
9.665491793E0,-2.521379665E-2,3.602153063E-2,-1.308984756E-1
9.681452486E0,-2.563693747E-2,3.201526403E-2,-5.436229706E-2
9.697443697E0,-4.744672030E-2,2.738213539E-2,1.608667374E-1
9.713404391E0,-3.724161536E-2,3.634065390E-2,2.231788635E-1
9.729395602E0,-2.897501364E-2,3.818535805E-2,3.695678711E-2
9.745386812E0,-1.112441346E-2,1.979076862E-2,-1.754932404E-1
9.761347506E0,9.846709669E-3,1.041668653E-2,-1.297903061E-1
9.777277682E0,-1.126160845E-2,1.301193237E-2,-9.653568268E-2
9.793268893E0,-6.173026934E-2,2.670526505E-2,1.733703613E-1
9.809229586E0,-1.747610047E-2,5.198222399E-2,3.669309616E-1
9.825190279E0,2.598017268E-2,4.172724485E-2,7.991790771E-2
9.841150973E0,6.641457975E-2,1.531505585E-2,-2.811326981E-1
9.857142184E0,2.984611690E-2,7.230699062E-3,-3.583641052E-1
9.873102877E0,-4.359518737E-2,3.044563532E-2,-1.099996567E-1
9.889094088E0,-8.812501281E-2,6.467676163E-2,2.237272263E-1
9.905054781E0,-8.109749109E-2,7.730090618E-2,4.286508560E-1
9.921045992E0,-4.776247591E-2,6.632465124E-2,2.851305008E-1
9.937067721E0,3.095522150E-2,6.197553873E-2,-7.791614532E-2
9.952997896E0,5.424636602E-2,5.837202072E-2,-2.830076218E-1
9.968989107E0,3.667235374E-3,1.529085636E-2,-1.824541092E-1
9.984949801E0,-6.172701344E-2,-2.595120668E-2,8.442878723E-3
1.000091049E1,-8.134132624E-2,-5.893349648E-3,1.249904633E-1
1.001687119E1,-6.226448715E-2,-5.462783575E-2,9.087467194E-2
1.003286240E1,-3.585277870E-2,-3.101640940E-2,3.060150146E-2
1.004879257E1,-2.593241259E-2,-7.650375366E-3,1.584529877E-2
1.006475327E1,-3.473172337E-2,5.948472023E-2,1.539421082E-2
1.008077500E1,-2.843185887E-2,1.023371220E-1,3.652954102E-2
1.009673569E1,-5.252067000E-3,1.079227328E-1,4.342651367E-2
1.011269638E1,-2.700059861E-2,1.123071909E-1,-2.272911072E-1
1.012871811E1,2.828472294E-2,-3.117096424E-2,1.435871124E-1
1.014467880E1,1.209710911E-2,1.870477200E-2,2.892360687E-1
1.016067002E1,-2.217628062E-3,-4.427891970E-2,-3.338384628E-1
1.017660019E1,-5.952047929E-2,8.382737637E-3,2.904052734E-1
1.019256088E1,-5.666821823E-2,2.204078436E-2,-2.321052551E-1
1.020855210E1,-1.789103448E-2,2.158284187E-2,-1.606597900E-1
1.022454331E1,1.322849840E-2,2.736985683E-2,-2.941131592E-3
1.024050400E1,9.882085025E-3,2.972811460E-2,-3.209304810E-2
1.025652573E1,8.350349963E-4,2.704495192E-2,-3.988265991E-2
1.027245590E1,-3.969412670E-2,1.721394062E-2,2.394580841E-2
1.028844712E1,-4.523646832E-2,7.707476616E-3,3.988075256E-2
1.030440781E1,-3.804079071E-2,-1.431012154E-2,5.595207214E-3
1.032039902E1,-1.168922335E-2,-1.685798168E-2,-2.152633667E-2
1.033639023E1,-3.298829868E-2,-2.358150482E-2,3.750324249E-2
1.035235092E1,-3.471255302E-2,-1.841074228E-2,7.021522522E-2
1.036834214E1,-2.244256064E-2,-4.603743553E-3,3.358078003E-2
1.038433335E1,-5.535840988E-3,3.487271070E-2,1.136970520E-2
1.040029404E1,-1.748318970E-2,3.855216503E-2,-1.323699951E-2
1.041631577E1,-7.711824030E-3,4.726821184E-2,5.073070526E-2
1.043224594E1,-1.469175518E-2,2.777618170E-2,2.608013153E-2
1.044823715E1,-4.086468369E-2,2.017682791E-2,-9.489059448E-4
1.046422836E1,-3.370372951E-2,-1.099526882E-2,2.706909180E-2
1.048018906E1,-3.603227809E-2,-4.124581814E-3,4.553794861E-2
1.049618027E1,-3.097034246E-2,-2.615070343E-2,1.649379730E-2
1.051211045E1,-1.691263169E-3,-3.127628565E-2,5.906105042E-3
1.052810166E1,-7.978167385E-3,-3.128230572E-2,2.198982239E-2
1.054406235E1,7.312044501E-3,-2.161890268E-2,1.652908325E-2
1.056002304E1,-1.155954972E-2,-1.425695419E-2,1.346397400E-2
1.057598374E1,-2.830588073E-2,-7.347047329E-3,2.959060669E-2
1.059197495E1,-4.560539499E-2,1.094073057E-2,4.815769196E-2
1.060796616E1,-2.203521132E-2,1.167213917E-2,6.678485870E-2
1.062395737E1,-2.671458572E-2,6.987392902E-3,-1.988410950E-2
1.063991806E1,-1.546620578E-2,7.819771767E-3,-7.068347931E-2
1.065584824E1,2.516042441E-3,1.477539539E-3,-7.853603363E-2
1.067183945E1,9.701564908E-3,-2.580070496E-2,9.210586548E-3
1.068783066E1,8.238028735E-3,-8.000552654E-3,1.544656754E-1
1.070379135E1,-2.020614222E-2,-1.321005821E-2,1.922245026E-1
1.071975205E1,-5.703887343E-2,3.204345703E-3,2.814292908E-3
1.073571274E1,-5.816401169E-2,-2.386075258E-2,-7.165050507E-2
1.075170395E1,-1.718642935E-2,-9.371161461E-3,-5.772018433E-2
1.076766464E1,-3.479325399E-2,-1.443016529E-2,-1.589603424E-1
1.078368637E1,1.776595227E-2,-4.260003567E-3,-6.177616119E-2
1.079961655E1,3.897066787E-2,4.732012749E-3,1.790266037E-1
1.081551621E1,4.017201811E-2,-9.856164455E-3,2.237653732E-1
1.083153794E1,1.143843587E-2,-3.697976470E-2,-2.089977264E-2
1.084749863E1,-2.149867639E-2,-3.539061546E-2,-1.937217712E-1
1.086345932E1,-7.196196914E-2,-4.925251007E-3,-1.393289566E-1
1.087948105E1,-8.268070221E-2,2.568009496E-2,9.441089630E-2
1.089541123E1,-7.179997116E-2,7.537344098E-2,4.001216888E-1
1.091137192E1,-3.489799798E-2,5.901950598E-2,2.872533798E-1
1.092739365E1,1.840221509E-2,4.075562954E-2,-4.557800293E-2
1.094338486E1,1.367759798E-2,-1.243850589E-2,-2.443780899E-1
1.095937607E1,-4.127308726E-3,-6.464788318E-2,-1.872510910E-1
1.097533676E1,-3.685388342E-2,-9.283486009E-2,2.290534973E-2
1.099135849E1,-4.474598914E-2,-9.953337908E-2,1.947746277E-1
1.100731919E1,-7.536444813E-2,-8.351209760E-2,1.704797745E-1
1.102327988E1,-3.336497396E-2,-7.062730193E-2,4.815483093E-2
1.103930161E1,-2.474670671E-2,-5.158692598E-3,-3.346443176E-2
1.105526230E1,9.887577966E-3,7.442525029E-2,-1.939105988E-2
1.107122299E1,1.506194193E-2,6.765186787E-2,1.136398315E-2
1.108721420E1,-8.281391114E-3,7.363933325E-2,6.125068665E-2
1.110320542E1,-3.131689131E-2,2.418079972E-2,6.088447571E-2
1.111919663E1,-5.255054682E-2,-2.523574233E-2,-5.452022552E-1
1.113512680E1,1.175919641E-2,-7.476830482E-2,8.884525299E-2
1.115114853E1,-4.835523665E-2,-2.302959561E-2,-2.037467957E-1
1.116710922E1,2.372004651E-2,-7.557380199E-2,4.116058350E-3
1.118313095E1,-2.081807703E-2,6.062835455E-3,3.653602600E-1
1.119909165E1,6.028395612E-3,-4.819750786E-2,-3.462791443E-2
1.121502182E1,-2.756136097E-2,1.886346936E-2,-4.673194885E-2
1.123104355E1,-8.802520111E-3,2.695679665E-2,-1.331386566E-1
1.124700424E1,-1.358748134E-2,3.493659198E-2,-3.769588470E-2
1.126302597E1,-2.696961723E-2,2.330273390E-2,6.011295319E-2
1.127898667E1,-3.747876734E-2,-1.748938859E-2,9.091663361E-2
1.129494736E1,-1.376068313E-2,-6.216117740E-2,6.670475006E-2
1.131096909E1,-4.037277773E-3,-8.639345318E-2,1.828193665E-3
1.132692978E1,-9.179126471E-3,-5.317977071E-2,6.398200989E-3
1.134298203E1,-1.028563268E-2,-4.366700351E-2,5.407428741E-2
1.135894272E1,-3.112467192E-2,-7.975369692E-3,5.998611450E-3
1.137490341E1,-1.809344068E-2,1.829043031E-3,-1.367568970E-3
1.139089463E1,-1.927394234E-2,2.658089995E-2,1.761150360E-2
1.140688584E1,-7.849441841E-3,2.486916631E-2,3.660774231E-2
1.142287705E1,-8.255553432E-3,5.649097264E-3,4.844474792E-2
1.143883774E1,-1.651786454E-2,-3.088192642E-2,2.840995789E-3
1.145479843E1,-2.526421659E-2,-4.555534944E-2,-2.049446106E-3
1.147078964E1,-2.868645266E-2,-5.296274275E-2,2.650260925E-3
1.148678086E1,-1.896941476E-2,-4.889562726E-2,1.007385254E-1
1.150277207E1,3.477922641E-3,-4.639882222E-2,8.392524719E-2
1.151873276E1,1.563256606E-2,-2.807674557E-2,-5.019092560E-2
1.153469345E1,6.782347336E-3,-2.259232290E-2,-1.340227127E-1
1.155065415E1,-1.897773519E-2,5.450706929E-3,-1.532049179E-1
1.156661484E1,-3.401443362E-2,-2.167602442E-2,9.338569641E-2
1.158266709E1,-4.544897377E-2,-2.371364087E-2,3.399944305E-1
1.159862778E1,-3.819029778E-2,-3.976960480E-2,2.274713516E-1
1.161461899E1,-2.255880833E-2,-3.665415943E-2,-5.265140533E-2
1.163057968E1,-8.308926597E-3,-3.848104924E-2,-1.172895432E-1
1.164657090E1,-5.276717246E-2,-2.417713031E-2,-1.771240234E-1
1.166253159E1,-5.681104586E-2,-9.767871350E-3,-1.627130508E-1
1.167849228E1,8.157927543E-3,-5.799964070E-3,2.802972794E-1
1.169448349E1,4.203187674E-2,-3.016024083E-2,3.091039658E-1
1.171044419E1,4.021641612E-2,-6.341701001E-2,-6.909370422E-3
1.172640488E1,-3.219582140E-4,-7.863672078E-2,-2.391109467E-1
1.174242661E1,-2.135729045E-2,-5.576976389E-2,-2.127170563E-1
1.175838730E1,-6.892426312E-2,-2.487947047E-2,7.231903076E-2
1.177440903E1,-5.962650850E-2,1.095061749E-2,3.860883713E-1
1.179033920E1,-5.949769914E-2,1.863647252E-2,3.693675995E-1
1.180633042E1,-4.569914192E-3,2.101790905E-2,5.836486816E-4
1.182232163E1,1.357942820E-4,-1.168274134E-2,-2.987794876E-1
1.183828232E1,7.305271924E-3,-3.715668619E-2,-3.083925247E-1
1.185424301E1,-1.609177887E-2,-6.173343956E-2,-4.022693634E-2
1.187023422E1,-3.593075648E-2,-1.256808341E-1,2.183485031E-1
1.188625595E1,-4.277570546E-2,-1.395641714E-1,2.517986298E-1
1.190224716E1,-2.976994962E-2,-1.394138336E-1,1.367540359E-1
1.191820786E1,-3.349418566E-2,-7.644250989E-2,-1.420402527E-2
1.193419907E1,-2.108532563E-2,1.038009301E-2,-5.978202820E-2
1.195015976E1,-8.411829360E-3,1.051986068E-1,3.354167938E-2
1.196615097E1,1.393544767E-2,1.162009761E-1,1.005611420E-1
1.198214218E1,-4.708800465E-3,8.743724972E-2,1.245222092E-1
1.199810288E1,-4.175223410E-2,1.986634359E-2,-4.540824890E-2
1.201406357E1,3.339638468E-3,-4.508575797E-2,-2.368602753E-1
1.203005478E1,-8.197123185E-3,-6.850660592E-2,-9.313488007E-2
1.204601548E1,-3.509768471E-2,-9.201940894E-2,1.343841553E-1
1.206197617E1,-2.150249854E-2,-6.509007514E-2,1.967315674E-1
1.207793686E1,-1.576175168E-2,-1.961491257E-2,1.681680679E-1
1.209389756E1,-1.290535741E-2,-4.144355655E-3,3.433513641E-2
1.210988877E1,-4.593981430E-4,5.126518011E-2,4.296741486E-1
1.212591049E1,-2.787733264E-2,2.502933145E-3,-4.151544571E-1
1.214190170E1,-1.395375654E-2,-1.924411952E-2,3.633127213E-1
1.215786240E1,-9.359879792E-2,6.030914187E-2,-2.899303436E-1
1.217385361E1,-2.492064983E-2,-7.644638419E-3,2.491540909E-1
1.218978379E1,-3.803455457E-2,3.128118813E-2,8.194255829E-2
1.220571396E1,-5.733435974E-3,-3.467097878E-2,-8.525466919E-2
1.222176621E1,-2.773316763E-2,6.798863411E-3,6.840801239E-2
1.223772690E1,-8.387772366E-3,7.141888142E-3,7.366847992E-2
1.225371811E1,-1.958933473E-2,1.593807340E-2,3.111171722E-2
1.226964829E1,-2.141406387E-2,1.044413447E-2,2.946853638E-3
1.228563950E1,-2.131461352E-2,2.726435661E-2,1.309585571E-2
1.230163071E1,-3.876045346E-2,1.332303882E-2,2.565097809E-2
1.231759140E1,-3.493923694E-2,4.729491472E-2,3.823184967E-2
1.233358261E1,-1.464117318E-2,3.510093689E-2,6.283664703E-2
1.234951279E1,2.700105309E-3,2.694448829E-2,4.919338226E-2
1.236544297E1,2.649001777E-3,-4.599452019E-3,-2.429962158E-2
1.238149521E1,-1.019247249E-2,1.097568870E-2,-7.150173187E-2
1.239745590E1,-2.279571816E-2,1.983118057E-2,-1.020526886E-1
1.241341660E1,-1.308938861E-2,5.183622241E-2,2.775382996E-2
1.242937729E1,-2.173370123E-2,4.863676429E-2,2.127218246E-1
1.244536850E1,-2.900082618E-3,3.345057368E-2,1.872634888E-1
1.246135971E1,-2.209701017E-2,2.658241987E-2,-2.711391449E-2
1.247732041E1,-5.017921329E-3,2.297878265E-2,-9.784698486E-2
1.249328110E1,-3.029354662E-2,5.290627480E-3,-2.598104477E-1
1.250927231E1,-3.787182644E-2,3.074866533E-2,8.301448822E-2
1.252526352E1,-1.368548349E-2,4.576307535E-2,3.636512756E-1
1.254125473E1,1.657429524E-2,4.387557507E-2,1.850376129E-1
1.255721543E1,3.122540191E-2,1.194471121E-2,-2.303428650E-1
1.257320664E1,1.209822483E-2,9.746968746E-3,-4.545030594E-1
1.258913681E1,-2.974410355E-2,1.361203194E-2,-2.196569443E-1
1.260512802E1,-6.420211494E-2,5.378115177E-2,2.734260559E-1
1.262111923E1,-9.819821268E-2,5.309993029E-2,5.945949554E-1
1.263711045E1,-5.828327313E-2,6.036680937E-2,4.019069672E-1
1.265313217E1,3.526218235E-3,4.164218903E-2,-7.023525238E-2
1.266909287E1,-2.511015534E-2,6.574767828E-2,-2.814846039E-1
1.268508408E1,-2.928737178E-2,2.444308996E-2,-2.778453827E-1
1.270104477E1,-6.311787665E-2,2.965974808E-2,-9.282875061E-2
1.271700547E1,-4.089437798E-2,2.646857500E-2,6.559658051E-2
1.273296616E1,-3.659942374E-2,2.593874931E-3,1.283779144E-1
1.274895737E1,1.101880521E-2,-2.676606178E-2,1.171808243E-1
1.276491806E1,-1.096763089E-2,-1.041752100E-2,7.264328003E-2
1.278097031E1,-3.828088939E-2,1.741278172E-2,-5.359649658E-3
1.279693100E1,-6.048665941E-2,6.752151251E-2,-2.000808716E-3
1.281289170E1,-3.002375364E-2,1.090432405E-1,4.438877106E-2
1.282885239E1,1.869246364E-3,1.154683828E-1,1.171875000E-2
1.284481308E1,8.344260976E-3,5.099165440E-2,-1.622486115E-2
1.286083481E1,-2.173148096E-4,5.509090424E-2,-6.104946136E-2
1.287679550E1,-4.850813746E-2,2.807116508E-2,-5.819416046E-2
1.289275620E1,-5.625019222E-2,3.861224651E-2,4.507923126E-2
1.290874741E1,-4.978539050E-2,1.941257715E-2,1.005573273E-1
1.292470810E1,-7.136054337E-3,2.199399471E-2,9.876346588E-2
1.294072983E1,1.855213009E-2,3.232783079E-2,6.840324402E-2
1.295669052E1,7.638685405E-3,5.643194914E-2,5.486011505E-2
1.297259018E1,-6.139378995E-3,5.291527510E-2,-1.144695282E-2
1.298855088E1,-4.856650531E-2,4.175812006E-2,-3.242969513E-2
1.300454209E1,-3.808077425E-2,2.344542742E-2,-1.031494141E-2
1.302053330E1,-3.115709126E-2,2.443969250E-2,-4.370784760E-2
1.303649399E1,-7.479038090E-3,3.151494265E-2,-1.475143433E-2
1.305248520E1,-1.514385641E-2,1.492381096E-2,6.924724579E-2
1.306844590E1,-8.167348802E-3,1.827162504E-2,7.917404175E-2
1.308443711E1,-5.614686385E-2,1.749950647E-2,4.616546631E-2
1.310042832E1,-3.681039810E-2,4.230952263E-2,-5.922317505E-3
1.311638901E1,-2.495233715E-2,8.919215202E-2,2.334594727E-2
1.313241074E1,-8.585803211E-3,7.546961308E-2,-4.527130127E-1
1.314834091E1,-2.335469052E-2,8.200174570E-2,4.046955109E-1
1.316436264E1,-2.881121077E-2,7.516598701E-2,-3.373155594E-1
1.318035385E1,-2.466033958E-2,2.719807625E-2,3.476581573E-1
1.319631455E1,-3.216176480E-2,6.672507524E-2,-2.625255585E-1
1.321230576E1,-2.537312731E-2,2.158826590E-2,-3.465652466E-2
1.322826645E1,-3.303796053E-2,-1.612067223E-3,-2.708721161E-2
1.324419663E1,-2.603814937E-2,2.379244566E-2,1.872062683E-2
1.326021836E1,-6.626980379E-3,2.559524775E-2,2.619266510E-2
1.327617905E1,-2.065228298E-2,3.216481209E-2,2.408981323E-2
1.329207871E1,-2.494997904E-2,7.668596506E-2,-1.389122009E-2
1.330803940E1,-1.770455576E-2,4.246717691E-2,-4.232025146E-2
1.332403061E1,-2.281239070E-2,3.791755438E-2,-6.196975708E-3
1.334002182E1,-3.711251915E-2,2.495497465E-2,4.657268524E-2
1.335598252E1,-1.594848931E-2,2.947342396E-2,9.471607208E-2
1.337197373E1,-1.074849814E-2,3.061491251E-2,8.789348602E-2
1.338790390E1,-1.260391809E-2,4.862546921E-3,1.887702942E-2
1.340389511E1,-7.703807205E-3,1.836949587E-2,-8.614540100E-2
1.341988632E1,-1.265956648E-2,1.581692696E-2,-8.373641968E-2
1.343584702E1,-1.006089896E-2,5.430132151E-2,1.177787781E-2
1.345180771E1,-3.352603316E-2,3.023481369E-2,2.078800201E-1
1.346776840E1,-4.465766251E-2,2.539211512E-2,1.674222946E-1
1.348372910E1,-3.411421180E-2,2.906006575E-2,-8.816814423E-2
1.349975083E1,-3.093694709E-2,1.046174765E-2,-1.475982666E-1
1.351571152E1,1.824632660E-2,1.062095165E-3,-8.537006378E-2
1.353164170E1,-1.108842529E-2,1.539647579E-2,-3.796195984E-2
1.354766342E1,-1.397665031E-2,4.574114084E-2,2.630710602E-1
1.356359360E1,1.065235492E-2,4.031014442E-2,2.245855331E-1
1.357958481E1,5.973526090E-2,4.198426008E-2,-1.198740005E-1
1.359557602E1,3.607961535E-2,2.656877041E-3,-3.520097733E-1
1.361150620E1,-3.133826330E-2,-1.297897100E-2,-2.544317245E-1
1.362746689E1,-6.327071786E-2,2.110761404E-2,3.403186798E-2
1.364345810E1,-8.562403172E-2,5.092412233E-2,3.897314072E-1
1.365944931E1,-7.251709700E-2,6.557923555E-2,4.519510269E-1
1.367541636E1,9.620316327E-3,7.597500086E-2,1.274185181E-1
1.369143809E1,6.365578622E-2,8.031755686E-2,-2.589883804E-1
1.370739879E1,6.705151871E-3,5.304843187E-2,-3.108558655E-1
1.372339000E1,-7.290539145E-2,-1.086950302E-2,-1.074228287E-1
1.373941173E1,-8.556981385E-2,-1.820564270E-2,8.125877380E-2
1.375531138E1,-6.210326403E-2,-5.117094517E-2,1.527919769E-1
1.377133311E1,-2.908692509E-2,-4.939794540E-2,1.241226196E-1
1.378735484E1,-1.944708824E-2,-2.610594034E-2,5.738639832E-2
1.380331554E1,-2.142693847E-2,3.864032030E-2,-2.139472961E-2
1.381927623E1,-4.156018421E-2,8.331018686E-2,-3.328132629E-2
1.383523692E1,-2.817119472E-2,1.152898073E-1,-9.422302246E-3
1.385125865E1,-1.990971155E-2,9.418988228E-2,6.236171722E-2
1.386721934E1,-1.265287399E-3,3.836721182E-2,-9.384155273E-3
1.388321056E1,2.216443233E-2,1.528435946E-2,-1.640987396E-2
1.389917125E1,-1.349911280E-2,-3.820669651E-2,2.824783325E-3
1.391510142E1,-2.755418047E-2,-4.591763020E-2,1.245594025E-2
1.393112315E1,-5.807586014E-2,2.044022083E-2,4.843902588E-2
1.394708385E1,-3.610384464E-2,4.057335854E-2,3.421592712E-2
1.396310557E1,-9.019445628E-3,8.393073082E-2,8.093833923E-3
1.397906627E1,2.465210110E-2,8.169549704E-2,2.029037476E-2
1.399505748E1,1.919693127E-2,3.422290087E-2,8.515357971E-3
1.401107921E1,3.348562866E-3,2.105081081E-2,-1.530933380E-2
1.402703990E1,-3.849995136E-2,-5.649030209E-3,-1.048755646E-2
1.404309215E1,-4.616658017E-2,-4.170536995E-4,3.831863403E-3
1.405911388E1,-5.083323270E-2,2.433097363E-2,6.145477295E-3
1.407501353E1,-2.935495600E-2,2.297073603E-2,4.674243927E-2
1.409103526E1,-3.424367681E-2,2.125477791E-2,2.512741089E-2
1.410699596E1,-3.070645034E-4,-7.431834936E-2,-5.638656616E-1
1.412301768E1,-9.332085028E-3,9.333795309E-2,-7.066345215E-2
1.413897838E1,8.178237826E-3,7.593572140E-3,1.040697098E-1
1.415496959E1,-2.488871291E-2,5.883681774E-2,3.721246719E-1
1.417099132E1,-3.728557378E-2,2.888262272E-3,-3.007984161E-1
1.418695201E1,-4.774969816E-2,-2.614259720E-3,3.861675262E-1
1.420294322E1,-3.620230407E-2,2.707606554E-2,-2.819118500E-1
1.421896495E1,-9.946061298E-3,9.858012199E-4,3.888607025E-2
1.423495616E1,4.413222894E-3,2.959132195E-3,3.413963318E-2
1.425091685E1,-9.877590463E-3,-2.006411552E-3,2.936935425E-2
1.426687755E1,-5.134932697E-3,1.771569252E-2,2.691745758E-2
1.428283824E1,-1.977107860E-2,1.678931713E-2,-6.748199463E-3
1.429879893E1,-1.823964156E-2,3.672760725E-2,-3.579616547E-2
1.431472911E1,-2.919039316E-2,5.397510529E-2,-1.237964630E-2
1.433075084E1,-2.036897279E-2,4.144936800E-2,3.963851929E-2
1.434674205E1,-3.261213750E-2,2.849775553E-2,6.297492981E-2
1.436273326E1,-8.733788505E-3,-1.885282993E-2,3.133296967E-2
1.437875499E1,-3.050922975E-2,5.524098873E-3,1.406764984E-2
1.439474620E1,-2.618594281E-2,4.095196724E-3,2.787971497E-2
1.441070689E1,-3.107482754E-2,3.220176697E-2,3.682994843E-2
1.442669810E1,-1.379391365E-2,5.348879099E-2,-6.918907166E-3
1.444268931E1,-8.559007198E-3,2.977257967E-2,-6.028652191E-2
1.445871104E1,-1.784884185E-2,2.213227749E-2,-4.677009583E-2
1.447461070E1,-2.008350752E-2,1.763820648E-3,5.997943878E-2
1.449063243E1,-4.170686752E-2,7.021605968E-3,1.763811111E-1
1.450662364E1,-5.880515650E-2,8.261561394E-3,8.964633942E-2
1.452258433E1,-4.678346217E-2,-1.643359661E-2,-9.506988525E-2
1.453854503E1,-2.005550452E-2,3.473562002E-2,-1.338815689E-1
1.455453624E1,1.282014512E-2,6.281316280E-3,-3.419780731E-2
1.457055797E1,-4.739841446E-3,-2.631646395E-2,-8.986473083E-3
1.458651866E1,2.302675694E-2,2.193450928E-4,9.031963348E-2
1.460254039E1,2.469052374E-2,1.564943790E-2,1.107625961E-1
1.461847056E1,3.751252592E-2,-2.842247486E-3,-2.269744873E-4
1.463449229E1,2.602052316E-2,1.934605837E-2,-1.064128876E-1
1.465048350E1,-1.620333083E-2,-2.511274815E-2,-8.830928802E-2
1.466644420E1,-3.535412997E-2,2.500218153E-2,3.247833252E-2
1.468243541E1,-6.245435402E-2,2.249240875E-2,2.131443024E-1
1.469839610E1,-6.023973972E-2,3.647291660E-2,3.131809235E-1
1.471441783E1,-2.028757334E-2,4.760807753E-2,1.112270355E-1
1.473043956E1,2.011392824E-2,5.192059278E-2,-1.283388138E-1
1.474636973E1,1.482327469E-2,-3.131568432E-3,-1.933393478E-1
1.476229991E1,-3.636245802E-2,-2.428758144E-2,-1.054906845E-1
1.477832164E1,-6.824035943E-2,-5.846202374E-2,5.153274536E-2
1.479431285E1,-6.634304672E-2,-8.768475056E-2,1.487073898E-1
1.481024302E1,-5.695747957E-2,-5.421179533E-2,1.382989883E-1
1.482623424E1,-4.140588921E-3,-4.173833132E-2,5.859851837E-2
1.484219493E1,1.503812335E-2,2.163308859E-2,-6.901741028E-2
1.485821666E1,-1.616535895E-2,6.884610653E-2,-7.710933685E-2
1.487420787E1,-2.358097024E-2,8.997917175E-2,-6.342887878E-3
1.489016856E1,-4.600999504E-2,7.570600510E-2,1.027278900E-1
1.490615977E1,-5.562843382E-2,3.316086531E-2,1.257534027E-1
1.492212047E1,-4.276677500E-3,-2.097386122E-2,-4.979705811E-2
1.493814220E1,2.150882222E-2,-3.512364626E-2,-1.440267563E-1
1.495407237E1,3.413590416E-2,-7.514813542E-2,-4.206943512E-2
1.497006358E1,-1.530946046E-2,-4.383701086E-2,1.340351105E-1
1.498605479E1,-4.316648096E-2,-2.231109142E-2,2.193346024E-1
1.500201549E1,-2.841206640E-2,1.631259918E-2,1.564493179E-1
1.501800670E1,-1.628917828E-2,6.741866469E-2,3.004074097E-4
1.503393687E1,2.755399421E-2,4.881060123E-2,-1.272096634E-1
1.504995860E1,7.516782731E-3,3.256109357E-2,-1.304311752E-1
1.506591930E1,-1.249115355E-2,-1.608911157E-2,-5.477142334E-2
1.508191051E1,-1.590550318E-2,-3.052785993E-2,5.921173096E-2
1.509790172E1,-5.068877339E-2,-4.974958301E-2,1.158771515E-1
1.511383189E1,-4.002543166E-2,-7.502269745E-2,5.797367096E-1
1.512985362E1,-6.311106682E-2,-2.942228317E-2,-6.476688385E-2
1.514578380E1,3.388936818E-2,-6.899988651E-2,1.742544174E-1
1.516177501E1,1.150743477E-2,4.647141695E-2,1.761960983E-1
1.517776622E1,5.867440253E-3,-3.000408411E-3,-3.103523254E-1
1.519372691E1,1.817476004E-4,5.232840776E-2,2.062320709E-1
1.520974864E1,-4.841167107E-2,3.313136101E-2,1.697950363E-1
1.522570933E1,-4.834590480E-2,2.641955018E-2,1.071033478E-1
1.524170054E1,-3.636875749E-2,-8.924752474E-3,5.886268616E-2
1.525763072E1,-1.530024782E-2,-5.649949610E-2,-2.287292480E-2
1.527365245E1,-2.381025255E-2,-4.743890464E-2,-6.632423401E-2
1.528964366E1,-2.223241329E-2,-8.032801747E-2,-6.660461426E-3
1.530560435E1,-2.842612192E-2,-7.085278630E-2,7.914257050E-2
1.532159556E1,-1.500529982E-2,-3.811636567E-2,1.001977921E-1
1.533755626E1,-1.277610660E-3,-5.983561277E-4,4.007816315E-2
1.535357799E1,-3.125771135E-2,-1.850128174E-3,-8.592605591E-4
1.536950816E1,-3.403964639E-2,-1.944033802E-2,4.679870605E-2
1.538546886E1,-3.194461390E-2,-2.493858337E-2,1.546287537E-2
1.540142955E1,-1.873039268E-2,-6.452351809E-3,-5.415916443E-2
1.541745128E1,-1.884229481E-3,-2.682488412E-2,-9.504890442E-2
1.543344249E1,1.819548942E-2,-7.073618472E-3,-6.648063660E-3
1.544937266E1,2.800058015E-2,-1.400941610E-2,1.751556396E-1
1.546536388E1,-1.231244393E-2,-3.703254461E-2,2.420949936E-1
1.548138560E1,-4.852399975E-2,-3.068396449E-2,1.079788208E-1
1.549734630E1,-4.929145426E-2,-3.163966164E-2,-5.724334717E-2
1.551333751E1,-3.602057695E-2,-1.130864024E-2,-7.163810730E-2
1.552929820E1,-3.998685256E-2,-1.285996102E-2,-2.009696960E-1
1.554528941E1,2.635199204E-2,-3.085538745E-3,-2.058124542E-1
1.556121959E1,4.723932967E-2,-3.280735761E-2,2.586336136E-1
1.557718028E1,2.278469875E-2,-4.205689952E-2,3.280820847E-1
1.559311046E1,-7.055278867E-3,-2.844732255E-2,4.887580872E-3
1.560913219E1,-2.355588414E-2,-8.753519505E-2,-2.057924271E-1
1.562512340E1,-1.696096174E-2,-3.374372423E-2,-1.554908752E-1
1.564108409E1,-4.085014015E-2,-4.049350321E-2,7.438182831E-2
1.565707530E1,-8.039729297E-2,2.822783217E-2,3.330945969E-1
1.567300548E1,-5.391053110E-2,3.130238876E-2,2.804861069E-1
1.568902720E1,-5.945011973E-3,1.820436120E-2,6.261634827E-2
1.570498790E1,2.435157076E-2,-2.796170115E-2,-1.911697388E-1
1.572097911E1,1.478862017E-3,-3.284221143E-2,-2.318487167E-1
1.573697032E1,-1.651328057E-2,-6.122463197E-2,-8.094882965E-2
1.575293101E1,-5.847131833E-2,-8.737250417E-2,1.441974640E-1
1.576895274E1,-4.003514722E-2,-1.138758510E-1,2.304592133E-1
1.578491344E1,-5.435604975E-2,-8.691106737E-2,8.204841614E-2
1.580090465E1,-3.258707374E-2,-3.774935752E-2,-4.962062836E-2
1.581686534E1,-1.786845550E-2,8.538551629E-3,-1.381740570E-1
1.583285655E1,-1.483778656E-2,6.833465397E-2,-2.078342438E-2
1.584884776E1,-6.693359464E-3,7.706540823E-2,6.789970398E-2
1.586483897E1,-3.376051784E-3,3.811462224E-2,1.781110764E-1
1.588079967E1,-2.018426359E-2,-2.607744932E-2,8.955192566E-2
1.589682140E1,-1.287198439E-2,-7.908123732E-2,-2.049188614E-1
1.591281261E1,-1.754408330E-2,-7.010935247E-2,-9.709167480E-2
1.592877330E1,-5.216593668E-2,-6.836074591E-2,1.999263763E-1
1.594476451E1,-1.648893766E-2,-2.905724943E-2,2.766294479E-1
1.596075572E1,-2.496365458E-3,-1.748979092E-2,1.090316772E-1
1.597674693E1,2.451481670E-2,4.362091422E-3,-1.352024078E-1
1.599267711E1,-1.378852874E-3,1.308043301E-2,-1.591110229E-1
1.600869884E1,-3.067353740E-2,7.388412952E-3,-4.169273376E-2
1.602465953E1,-4.641634226E-2,-2.300432324E-2,7.814311981E-2
1.604065074E1,-4.081712663E-2,-3.634002805E-2,8.542251587E-2
1.605664195E1,-5.040340871E-2,-8.378703892E-2,1.364707947E-2
1.607257213E1,-3.101881780E-2,-6.614136696E-2,-6.295394897E-2
1.608859386E1,-3.728923947E-2,-8.047312498E-2,-3.183269501E-2
1.610458507E1,-1.917242631E-2,-3.433728218E-2,2.798557281E-2
1.612054576E1,1.342799142E-2,-3.529055417E-2,5.162954330E-1
1.613650645E1,-8.610147983E-3,1.099371910E-2,-1.255455017E-1
1.615240611E1,5.794458091E-3,-3.673107922E-2,3.482456207E-1
1.616842784E1,-5.102486163E-2,2.626528591E-2,-1.356716156E-1
1.618438853E1,-5.021786690E-2,-5.042114109E-2,-7.848548889E-2
1.620037974E1,-4.047299549E-2,5.101546645E-3,1.918325424E-1
1.621634044E1,-4.674678668E-3,-1.203192398E-2,1.210784912E-2
1.623233165E1,7.348021492E-3,-9.932279587E-3,1.202011108E-2
1.624832286E1,-1.375610009E-2,-2.904743887E-2,8.861827850E-2
1.626428355E1,-1.416458841E-2,-2.395151928E-2,9.824657440E-2
1.628030528E1,-1.892381534E-2,-2.449634671E-2,-3.571796417E-2
1.629629649E1,-3.458382934E-2,-4.087756947E-2,-1.768255234E-1
1.631228770E1,-1.884038746E-2,-6.938278675E-3,-2.101726532E-1
1.632830943E1,-1.008189749E-3,-2.327241004E-3,-5.917930603E-2
1.634427012E1,-1.805408858E-2,-2.416133881E-3,1.852073669E-1
1.636026134E1,-2.774191462E-2,2.563478053E-2,3.171691895E-1
1.637622203E1,-6.153478473E-2,2.548396587E-4,1.548252106E-1
1.639221324E1,-5.224530771E-2,1.860888302E-2,-3.847789764E-2
1.640814342E1,-3.982789814E-2,6.506755948E-3,-1.383771896E-1
1.642410411E1,-3.023740835E-2,5.050060153E-2,-2.144050598E-1
1.644006480E1,1.939911023E-2,6.820979714E-2,3.023719788E-2
1.645602550E1,4.941692576E-2,7.455182076E-2,3.419246674E-1
1.647195567E1,2.690057456E-2,4.652032256E-2,9.835815430E-2
1.648797740E1,4.099437036E-3,1.712429523E-2,-3.414421082E-1
1.650393809E1,5.355257541E-3,-7.965058088E-3,-3.768119812E-1
1.651995982E1,-3.067397699E-2,5.648493767E-3,-1.059799194E-1
1.653592052E1,-4.326138645E-2,1.161891222E-2,3.323812485E-1
1.655191173E1,-7.664065808E-2,2.534267306E-2,5.963153839E-1
1.656784190E1,-6.333452463E-2,3.848218918E-2,3.724699020E-1
1.658383311E1,-1.174999960E-2,5.543527007E-2,-2.808380127E-2
1.659979381E1,9.401047602E-3,4.629153013E-2,-3.136997223E-1
1.661575450E1,-1.002804376E-2,7.407444715E-2,-3.268070221E-1
1.663171519E1,-3.977075219E-2,4.394721985E-2,-1.679620743E-1
1.664764537E1,-7.826414704E-2,5.179101229E-2,8.643436432E-2
1.666363658E1,-5.558799207E-2,7.674396038E-3,1.470098495E-1
1.667956676E1,-3.724669665E-2,-1.612067223E-2,1.264085770E-1
1.669555797E1,5.334259942E-3,-2.138793468E-2,4.376792908E-2
1.671148814E1,4.503833130E-3,8.478581905E-3,4.501056671E-2
1.672750987E1,-1.372599043E-2,5.053961277E-2,4.867362976E-2
1.674347056E1,-3.021309152E-2,7.086861134E-2,5.957221985E-2
1.675949229E1,-5.681200325E-2,8.227986097E-2,6.567955017E-2
1.677548350E1,-1.504079998E-2,6.831884384E-2,-6.710052490E-2
1.679147472E1,-2.487227321E-3,6.481009722E-2,-1.450147629E-1
1.680737437E1,-2.883933112E-2,4.909235239E-2,-8.437252045E-2
1.682336558E1,-3.059111722E-2,3.165799379E-2,1.436519623E-2
1.683932628E1,-3.498593718E-2,3.073042631E-2,1.442518234E-1
1.685534801E1,-3.244877607E-2,7.910966873E-3,1.354875565E-1
1.687133922E1,-2.999574505E-2,2.292943001E-2,8.385753632E-2
1.688726939E1,9.092055261E-4,2.799999714E-2,4.424571991E-2
1.690326060E1,7.922006771E-3,6.423699856E-2,-2.704143524E-2
1.691922130E1,-1.156255603E-4,6.525421143E-2,-5.911445618E-2
1.693518199E1,-2.260403521E-2,7.043761015E-2,-3.921794891E-2
1.695111217E1,-4.980848357E-2,6.255239248E-2,1.888847351E-2
1.696713390E1,-4.119186848E-2,5.257451534E-2,6.021690369E-2
1.698309459E1,-3.641071916E-2,3.468894958E-2,5.133533478E-2
1.699908580E1,-3.356967866E-2,2.851164341E-2,3.530216217E-2
1.701507701E1,-2.590167150E-2,1.512110233E-2,1.688480377E-2
1.703103770E1,-2.275628597E-2,5.233460665E-2,1.041889191E-2
1.704705943E1,-3.394875675E-2,4.707604647E-2,6.299972534E-3
1.706298961E1,2.628989518E-3,6.855708361E-2,1.172733307E-2
1.707898082E1,-2.811028622E-2,6.859111786E-2,3.630447388E-2
1.709500255E1,-2.565012872E-2,5.452549458E-2,8.190155029E-3
1.711090221E1,-4.668083042E-3,-2.609193325E-2,-1.420698166E-1
1.712692393E1,-4.630104452E-2,5.375057459E-2,4.833898544E-1
1.714288463E1,-2.529237233E-2,3.101706505E-2,-4.761400223E-1
1.715887584E1,-3.889445215E-3,6.016552448E-3,2.881488800E-1
1.717483653E1,5.994226784E-3,5.988025665E-2,-2.068958282E-1
1.719076671E1,-4.607681185E-4,3.353416920E-3,2.509813309E-1
1.720678844E1,-2.151645906E-2,5.030536652E-2,-4.068861008E-1
1.722281016E1,-2.389600314E-2,4.031139612E-2,6.198883057E-4
1.723874034E1,-4.594365507E-2,5.261981487E-2,2.737712860E-2
1.725473155E1,-2.430353500E-2,5.584508181E-2,3.812789917E-3
1.727069224E1,-2.887268551E-2,6.379067898E-2,8.987426758E-3
1.728671397E1,-1.189536788E-2,6.211894751E-2,3.092670441E-2
1.730267467E1,1.511585526E-2,4.604482651E-2,2.653694153E-2
1.731869640E1,-1.548575610E-2,4.189372063E-2,3.412342072E-2
1.733468761E1,-3.937068582E-2,3.751593828E-2,5.130958557E-2
1.735061778E1,-4.872963578E-2,2.795130014E-2,1.826000214E-2
1.736663951E1,-4.333472252E-2,3.768104315E-2,1.632308960E-2
1.738256969E1,-1.882113703E-2,4.798907042E-2,-2.637004852E-2
1.739856090E1,2.848155797E-3,4.519051313E-2,-8.594608307E-2
1.741452159E1,-2.075180411E-3,3.781944513E-2,-7.395744324E-2
1.743051280E1,-2.646115050E-2,2.260386944E-2,9.348297119E-2
1.744644298E1,-4.327555001E-2,2.987146378E-2,2.323379517E-1
1.746243419E1,-2.797256969E-2,2.983707190E-2,9.874534607E-2
1.747839488E1,-2.687338553E-2,4.425883293E-2,-1.279869080E-1
1.749441661E1,2.117267996E-2,4.695022106E-2,-1.131687164E-1
1.751040782E1,-1.390115358E-2,3.932929039E-2,-8.200550079E-2
1.752636851E1,-3.514756262E-2,2.097386122E-2,3.259563446E-2
1.754235972E1,-4.429997504E-2,3.156405687E-2,3.004055023E-1
1.755832042E1,4.494729638E-2,2.285867929E-2,1.521129608E-1
1.757431163E1,7.491122186E-2,4.174351692E-2,-2.089052200E-1
1.759024180E1,1.493313722E-2,2.123904228E-2,-3.045377731E-1
1.760626353E1,-4.835261405E-2,6.255686283E-3,-1.711263657E-1
1.762222423E1,-7.836788893E-2,4.498279095E-2,1.156520844E-1
1.763821544E1,-9.140919894E-2,6.355416775E-2,3.752450943E-1
1.765417613E1,-4.109771550E-2,6.406831741E-2,3.706417084E-1
1.767019786E1,2.941012010E-2,6.917786598E-2,3.093719482E-3
1.768612804E1,3.492706269E-2,5.555623770E-2,-2.397432327E-1
1.770211925E1,8.240598254E-3,3.869360685E-2,-2.629451752E-1
1.771807994E1,-4.545221478E-2,1.455676556E-2,-1.871871948E-2
1.773407115E1,-6.771975756E-2,-1.933676004E-2,1.151494980E-1
1.775000133E1,-5.098810047E-2,-3.867375851E-2,1.223506927E-1
1.776602306E1,-3.149256855E-2,-3.614723682E-2,4.117870331E-2
1.778201427E1,-1.895482279E-2,9.310841560E-3,1.269721985E-2
1.779803599E1,-3.042366169E-2,7.346194983E-2,-1.358795166E-2
1.781399669E1,-2.482493594E-2,1.124600768E-1,1.268005371E-2
1.782998790E1,-2.622287534E-2,1.079657078E-1,1.744079590E-2
1.784594859E1,3.467356786E-3,6.857782602E-2,3.191947937E-2
1.786190928E1,-2.962959930E-3,2.186667919E-2,-1.344394684E-2
1.787786998E1,6.518432871E-3,-1.307559013E-2,-2.047348022E-2
1.789389171E1,-5.261775106E-3,-3.998744488E-2,-8.442878723E-3
1.790991344E1,-3.611905873E-2,7.789731026E-3,-8.431434631E-3
1.792584361E1,-5.470038205E-2,4.109776020E-2,3.708171844E-2
1.794183482E1,-5.174681544E-2,4.972207546E-2,5.154705048E-2
1.795779552E1,4.278635606E-3,6.509113312E-2,8.597373962E-3
1.797375621E1,1.182234846E-2,6.340944767E-2,1.588821411E-3
1.798971690E1,2.273724414E-2,3.324079514E-2,2.567672729E-2
1.800573863E1,-2.190175280E-2,8.080005646E-4,6.171989441E-2
1.802169932E1,-4.460775852E-2,1.878023148E-3,1.636409760E-2
1.803772105E1,-5.730684847E-2,-3.515601158E-3,-1.948833466E-2
1.805368175E1,-5.041898787E-2,9.117484093E-3,-5.191802979E-3
1.806967296E1,-4.706477746E-3,1.314091682E-2,-5.712509155E-4
1.808560313E1,-3.084585071E-2,3.419160843E-2,-3.161430359E-3
1.810159434E1,-8.982164785E-3,4.993879795E-2,4.457950592E-2
1.811755504E1,1.523216628E-2,-7.196187973E-3,-1.051902771E-2
1.813357677E1,-4.155838490E-2,8.751285076E-2,5.184173584E-2
1.814950694E1,-5.096182227E-3,2.660822868E-2,-4.460430145E-1
1.816552867E1,-2.435285412E-2,2.633941174E-2,3.967437744E-1
1.818151988E1,-5.840714276E-2,7.468605042E-2,-2.593164444E-1
1.819748057E1,-1.522534154E-2,5.866408348E-3,3.176231384E-1
1.821347178E1,-3.300776705E-3,3.774869442E-2,7.094192505E-2
1.822940196E1,-5.495611578E-3,2.398848534E-2,4.693794250E-2
1.824542369E1,-9.881816804E-3,1.066458225E-2,3.736495972E-3
1.826138438E1,-2.181733400E-2,-6.402015686E-3,-1.563167572E-2
1.827737559E1,-2.198757604E-2,6.666660309E-3,2.710533142E-2
1.829336680E1,-2.228088677E-2,1.118260622E-2,4.340171814E-2
1.830932750E1,-1.523310505E-2,4.268932343E-2,4.527091980E-2
1.832534923E1,-3.430671245E-2,4.848861694E-2,-8.058547974E-4
1.834134044E1,-2.680170722E-2,4.618597031E-2,8.592605591E-4
1.835733165E1,-1.009922288E-2,2.309447527E-2,-2.335548401E-3
1.837332286E1,-7.129888982E-4,7.706522942E-3,-1.036357880E-2
1.838925304E1,-2.296316996E-2,6.810843945E-3,3.188133240E-2
1.840527476E1,-2.854837663E-2,2.928453684E-2,4.545688629E-2
1.842123546E1,-3.337580711E-2,1.984095573E-2,7.348346710E-2
1.843725719E1,-2.778920159E-2,1.909565926E-2,7.287216187E-2
1.845324840E1,-4.630535841E-5,2.503621578E-2,1.485061646E-2
1.846923961E1,5.796805024E-3,2.171927691E-2,-3.122520447E-2
1.848526134E1,-1.114528067E-2,1.789712906E-2,-1.014194489E-1
1.850122203E1,-2.885380015E-2,-1.431226730E-3,-5.702400208E-2
1.851724376E1,-4.815669358E-2,-1.730382442E-3,5.182838440E-2
1.853317393E1,-3.995008767E-2,1.171779633E-2,1.870937347E-1
1.854916514E1,-2.203517035E-2,7.146418095E-3,1.527118683E-1
1.856512584E1,-9.579136968E-3,1.586192846E-2,-3.698253632E-2
1.858111705E1,-1.670234650E-2,-1.743566990E-2,-1.142406464E-1
1.859710826E1,-3.722070158E-2,-1.833814383E-2,-7.688999176E-2
1.861306895E1,-7.482053339E-2,-2.737700939E-3,-1.284923553E-1
1.862909068E1,-2.998543531E-2,2.400410175E-2,3.508663177E-2
1.864508189E1,4.691167921E-2,1.499897242E-2,1.843204498E-1
1.866104259E1,7.202602178E-2,2.112710476E-2,1.160335541E-1
1.867706431E1,3.488434851E-2,-1.423478127E-2,-1.004171371E-1
1.869302501E1,4.903027788E-3,-3.778892756E-2,-1.973047256E-1
1.870904674E1,-4.301769286E-2,8.986592293E-4,-7.665443420E-2
1.872497691E1,-9.468534589E-2,3.753840923E-2,2.281932831E-1
1.874096812E1,-9.268911183E-2,5.069053173E-2,4.017095566E-1
1.875695933E1,-3.247098625E-2,6.259787083E-2,2.358579636E-1
1.877298106E1,2.479067072E-2,3.770333529E-2,-1.115627289E-1
1.878897227E1,-2.564352006E-3,6.040096283E-3,-2.796077728E-1
1.880493297E1,-2.540374175E-2,-4.012304544E-2,-1.679925919E-1
1.882089366E1,-4.778810963E-2,-4.929733276E-2,-1.124477386E-2
1.883688487E1,-4.086318612E-2,-7.959508896E-2,1.072130203E-1
1.885290660E1,-2.178395353E-2,-8.391308784E-2,1.253185272E-1
1.886892833E1,-2.935022116E-3,-6.788349152E-2,1.245107651E-1
1.888482799E1,1.745323651E-3,-1.349467039E-2,1.132774353E-2
1.890081920E1,2.381603234E-3,2.901691198E-2,-3.480720520E-2
1.891677989E1,-2.530609444E-2,7.266765833E-2,3.632545471E-2
1.893277110E1,-3.459213674E-2,9.975123405E-2,4.521179199E-2
1.894876231E1,-2.472373098E-2,7.015836239E-2,9.729480743E-2
1.896469249E1,-8.960861713E-3,2.285093069E-2,-8.574485779E-3
1.898068370E1,1.762909442E-2,-2.511256933E-2,-2.031078339E-1
1.899664439E1,8.087631315E-3,-5.100375414E-2,-1.249542236E-1
1.901266612E1,-1.097056363E-2,-6.709870696E-2,1.374645233E-1
1.902865733E1,-3.558938578E-2,-5.226308107E-2,2.875118256E-1
1.904461803E1,-2.351554483E-2,-4.637780786E-2,2.247924805E-1
1.906057872E1,1.112047955E-2,-1.036551595E-2,4.012298584E-2
1.907650890E1,1.828643493E-2,7.871687412E-4,-1.565771103E-1
1.909246959E1,3.294511139E-2,3.025832772E-2,-1.955080032E-1
1.910839976E1,-4.468883201E-2,3.886955976E-2,-6.847362518E-1
1.912442149E1,-1.403816044E-2,-4.609912634E-2,7.816791534E-2
1.914041270E1,-8.854180574E-2,1.529750228E-2,9.659957886E-2
1.915637340E1,-5.544351786E-2,-7.873488963E-2,-2.965822220E-1
1.917239512E1,-3.696588427E-2,-5.834650993E-2,3.135223389E-1
1.918838634E1,-1.631399244E-2,-4.111707211E-2,-3.117408752E-1
1.920437755E1,3.097422794E-2,-4.495655000E-2,2.768583298E-1
1.922036876E1,2.549607120E-2,-7.258087397E-3,-1.561450958E-2
1.923632945E1,1.083639637E-2,1.171863079E-2,4.865932465E-2
1.925229014E1,-2.708565071E-2,4.162007570E-2,7.945728302E-2
1.926825084E1,-4.809401184E-2,1.842643321E-2,7.693290710E-2
1.928427257E1,-4.000442475E-2,-1.483064890E-2,9.510040283E-3
1.930026378E1,-1.376968529E-2,-3.211514652E-2,-3.099441528E-4
1.931622447E1,-1.255530026E-2,-8.468581736E-2,4.237174988E-3
1.933221568E1,-2.597224712E-2,-9.343715757E-2,2.793884277E-2
1.934811534E1,-1.736005768E-2,-5.653208494E-2,1.095294952E-2
1.936413707E1,-1.273744460E-2,-4.374870658E-2,1.793098450E-2
1.938015880E1,-9.825286455E-3,-3.160035610E-2,2.014350891E-2
1.939611949E1,-1.414991729E-2,-2.314293385E-2,4.633235931E-2
1.941211070E1,-1.483803149E-3,-2.079829574E-2,6.057834625E-2
1.942804088E1,-1.793485135E-2,-1.762028039E-2,7.006072998E-2
1.944406261E1,-1.579641365E-2,-2.962509543E-2,3.406906128E-2
1.946005382E1,-2.355404571E-2,-2.476137131E-2,1.723670959E-2
1.947598399E1,-3.098952956E-2,-2.153228968E-2,-1.157093048E-2
1.949200572E1,-3.350936249E-2,-2.162012085E-2,-6.432437897E-2
1.950790538E1,-7.756743580E-3,-1.072340086E-2,-4.285812378E-2
1.952392711E1,-1.440770179E-2,-2.457313612E-2,-1.899528503E-2
1.953988780E1,-4.211626947E-3,-4.775489494E-2,2.643108368E-2
1.955590953E1,-1.221543178E-2,-4.847601801E-2,1.484918594E-1
1.957190074E1,-2.738757432E-2,-6.041418761E-2,2.897291183E-1
1.958786143E1,-6.321430951E-2,-4.301999509E-2,1.341056824E-1
1.960388316E1,-4.948679358E-2,-5.572652817E-2,-1.196756363E-1
1.961984386E1,-2.587177977E-2,-2.797943540E-2,-1.675643921E-1
1.963583507E1,-4.309784994E-2,-5.401331000E-3,-1.292705536E-1
1.965182628E1,-2.912404016E-3,-7.991548628E-3,-2.058877945E-1
1.966781749E1,8.170026541E-2,7.431911305E-3,2.035531998E-1
1.968383922E1,6.807786226E-2,-5.429327115E-2,3.592300415E-1
1.969983043E1,1.009669714E-2,-8.302903175E-2,7.434749603E-2
1.971582164E1,-3.249164671E-2,-9.541007876E-2,-1.459112167E-1
1.973181285E1,-3.979120031E-2,-6.293241680E-2,-1.698246002E-1
1.974771251E1,-6.654304266E-2,4.430845380E-3,-4.046154022E-2
1.976373424E1,-8.324038982E-2,3.701352701E-2,2.637071609E-1
1.977972545E1,-5.135690421E-2,5.356772617E-2,3.882675171E-1
1.979565562E1,-1.330800354E-3,1.888304949E-2,1.296634674E-1
1.981167735E1,1.245397329E-2,3.620766103E-3,-2.175588608E-1
1.982760753E1,1.845087856E-3,-7.014394552E-2,-3.253278732E-1
1.984362926E1,1.644734293E-3,-1.271085739E-1,-1.433649063E-1
1.985958995E1,-3.780559450E-2,-1.533277482E-1,1.128482819E-1
1.987558116E1,-3.853288293E-2,-1.279837191E-1,2.325477600E-1
1.989154185E1,-1.727737114E-2,-1.274598390E-1,2.205066681E-1
1.990753306E1,-2.408363111E-2,-7.738950849E-2,7.674980164E-2
1.992355479E1,-2.625032142E-2,6.059581414E-3,-4.064846039E-2
1.993951549E1,-6.320534740E-3,7.585274428E-2,-4.787445068E-2
1.995550670E1,8.486706764E-3,1.111349240E-1,3.112888336E-2
1.997149791E1,-9.320355952E-3,9.867212921E-2,1.125564575E-1
1.998748912E1,-5.554908141E-2,4.676193371E-2,1.197996140E-1
2.000351085E1,-3.057804890E-2,-4.204626754E-2,-1.338844299E-1
2.001950206E1,1.220035367E-2,-6.922682375E-2,-2.391223907E-1
2.003546275E1,-2.133660018E-2,-8.189400285E-2,-9.193420410E-3
2.005142344E1,-2.063070238E-2,-1.030257568E-1,2.015819550E-1
2.006738414E1,-3.038876317E-2,-7.373815775E-2,2.328519821E-1
2.008340587E1,-2.160461806E-2,-2.171956003E-2,1.421155930E-1
2.009936656E1,-3.358102962E-2,-2.234084904E-2,-2.037334442E-2
2.011535777E1,-3.797206283E-2,4.058952630E-2,-5.084447861E-1
2.013137950E1,1.874383166E-2,-7.259398699E-4,4.237174988E-3
2.014727916E1,-3.424919024E-2,7.261465490E-2,-1.127700806E-1
2.016330089E1,-3.465154767E-2,-4.852458835E-3,-2.441186905E-1
2.017923106E1,-2.584996447E-2,-2.854347229E-3,3.883543015E-1
2.019522227E1,-3.570777178E-2,-6.568282843E-2,-1.666002274E-1
2.021118297E1,-2.895351127E-2,-2.206221223E-2,-2.715873718E-2
2.022717418E1,-9.368527681E-4,3.513395786E-4,-2.175712585E-2
2.024319591E1,-4.382291809E-3,1.978656650E-2,-1.876640320E-2
2.025915660E1,-2.725543641E-2,3.062057495E-2,8.169174194E-3
2.027517833E1,-3.773050010E-2,3.042244911E-2,6.373405457E-3
2.029110850E1,-5.091807246E-2,2.680808306E-2,3.337669373E-2
2.030709972E1,-4.473653063E-2,2.065023780E-2,2.450561523E-2
2.032299937E1,-9.725041687E-3,-7.256329060E-3,3.962039948E-2
2.033899058E1,8.508699015E-3,4.749000072E-4,4.041481018E-2
2.035495128E1,-9.406000376E-3,-8.422881365E-3,2.447891235E-2
2.037097301E1,-1.776072755E-2,-9.733408689E-3,1.334857941E-2
2.038696422E1,-3.091827780E-2,9.068787098E-3,-2.584457397E-3
2.040292491E1,-2.251679823E-2,3.616288304E-2,-1.614952087E-2
2.041891612E1,-4.272390157E-3,4.967761040E-2,1.336765289E-2
2.043487681E1,-1.485360786E-2,5.133980513E-2,4.769039154E-2
2.045089854E1,-1.338418573E-3,4.784488678E-2,3.656864166E-2
2.046685924E1,-1.454672962E-2,8.290648460E-3,-3.437805176E-2
2.048285045E1,-1.195951551E-2,7.695436478E-3,-6.464004517E-2
2.049881114E1,-4.833836108E-3,-1.774311066E-2,2.713584900E-2
2.051483287E1,-6.846424192E-3,1.169776917E-2,1.524610519E-1
2.053076304E1,-3.226466477E-2,4.752242565E-2,1.822404861E-1
2.054678477E1,-2.676432952E-2,5.091673136E-2,4.469394684E-2
2.056268443E1,-3.608458862E-2,7.622039318E-2,-1.239595413E-1
2.057867564E1,-3.443427011E-2,5.039054155E-2,-1.084938049E-1
2.059463634E1,-6.177735329E-2,4.670476913E-2,-1.819639206E-1
2.061065806E1,-3.678256646E-2,2.241861820E-2,1.176757812E-1
2.062655772E1,1.318869926E-2,4.206699133E-2,3.815088272E-1
2.064257945E1,1.826887764E-2,1.132798195E-2,1.454782486E-1
2.065854014E1,4.620556161E-2,-1.526373625E-2,-2.842321396E-1
2.067456187E1,2.993529476E-2,-3.208720684E-2,-4.199790955E-1
2.069052257E1,-1.756983250E-2,8.198916912E-3,-1.374406815E-1
2.070651378E1,-6.982122362E-2,7.427316904E-2,2.932128906E-1
2.072253551E1,-9.420152009E-2,8.546715975E-2,5.615930557E-1
2.073849620E1,-7.288709283E-2,8.114033937E-2,4.072084427E-1
2.075448741E1,-1.245053485E-2,8.908331394E-2,-1.935195923E-2
2.077044810E1,3.353599459E-2,5.833655596E-2,-2.975683212E-1
2.078643931E1,3.030240163E-2,6.156706810E-2,-2.605390549E-1
2.080240001E1,-3.068319894E-2,2.732062340E-2,-9.009265900E-2
2.081839122E1,-5.316533148E-2,1.226544380E-3,3.937244415E-2
2.083435191E1,-5.140585825E-2,-3.105825186E-2,1.234674454E-1
2.085034312E1,-4.922832549E-2,-4.326981306E-2,1.045360565E-1
2.086624278E1,-2.822142839E-2,-2.112311125E-2,4.564952850E-2
2.088226451E1,-1.095289923E-2,1.876103878E-2,2.000617981E-2
2.089822520E1,-5.318401381E-3,8.090794086E-2,3.261470795E-2
2.091424693E1,2.595186234E-4,1.072065830E-1,2.128124237E-2
2.093020762E1,-1.138966717E-2,9.263074398E-2,5.784988403E-2
2.094622935E1,-2.941778302E-2,6.841993332E-2,-4.203605652E-2
2.096219005E1,-4.001058638E-2,4.335945845E-2,-5.825901031E-2
2.097815074E1,3.828985617E-3,1.799905300E-2,-4.593944550E-2
2.099417247E1,-2.273559570E-3,1.352685690E-2,2.129077911E-2
2.101013316E1,-1.820321754E-2,2.773773670E-2,1.053237915E-1
2.102615489E1,-3.970640153E-2,2.071094513E-2,1.033535004E-1
2.104205455E1,-2.077873796E-2,4.307931662E-2,1.535224915E-2
2.105804576E1,-2.143554762E-2,5.369567871E-2,-1.759910583E-2
2.107397594E1,2.256030031E-2,4.870593548E-2,2.015113831E-3
2.108993663E1,-1.419689506E-2,5.428051949E-2,1.675319672E-2
2.110586680E1,7.037397474E-3,-4.013544321E-2,-1.696720123E-1
2.112188853E1,-3.653972596E-2,4.790711403E-2,-4.830360413E-1
2.113781871E1,-2.973979898E-2,6.534159184E-3,5.084533691E-1
2.115374889E1,-5.195418000E-2,4.652875662E-2,-1.592369080E-1
2.116977061E1,-5.025938153E-2,-2.294665575E-2,1.833639145E-1
2.118576182E1,-5.044502392E-2,5.116510391E-2,3.033132553E-1
2.120169200E1,-1.884400658E-2,3.852498531E-2,-2.183265686E-1
2.121768321E1,3.394482657E-3,5.918115377E-2,-5.041408539E-2
2.123361339E1,-1.102511585E-2,6.613856554E-2,1.927089691E-2
2.124957408E1,-3.558922559E-2,3.048396111E-2,2.426338196E-2
2.126550426E1,-4.574529827E-2,3.776711226E-2,4.842758179E-2
2.128152598E1,-5.078140646E-2,2.524989843E-2,4.152965546E-2
2.129751720E1,-1.213027351E-2,7.780730724E-3,3.526687622E-3
2.131350841E1,-9.329508990E-3,1.464378834E-2,-1.296615601E-2
2.132949962E1,-1.155482978E-2,2.717888355E-2,1.579284668E-3
2.134542979E1,-1.158037595E-2,4.015427828E-2,3.284072876E-2
2.136145152E1,-2.086667344E-2,3.133386374E-2,3.779220581E-2
2.137744273E1,-2.060587518E-2,3.616291285E-2,1.168823242E-2
2.139337291E1,-1.603434980E-2,5.316680670E-2,1.908302307E-2
2.140933360E1,-1.158948056E-2,2.741515636E-2,1.207828522E-2
2.142535533E1,-1.685070805E-2,3.077739477E-2,1.940250397E-2
2.144125499E1,-2.410522662E-2,2.004969120E-2,3.148651123E-2
2.145724620E1,-2.619485371E-2,2.129435539E-2,7.659912109E-3
2.147320689E1,-9.373338893E-3,2.032738924E-2,-2.097320557E-2
2.148922862E1,-2.620864473E-2,3.378790617E-2,-6.518363953E-3
2.150521983E1,-1.655174233E-2,3.520256281E-2,5.822372437E-2
2.152115001E1,-2.080677822E-2,2.849966288E-2,6.320476532E-2
2.153714122E1,-2.936019003E-2,3.066861629E-2,3.234577179E-2
2.155307140E1,-1.871998981E-2,3.037321568E-2,-2.962970734E-2
2.156903209E1,-2.293909341E-2,1.947611570E-2,-6.540775299E-2
2.158496226E1,-2.275991067E-2,1.825022697E-2,-5.355453491E-2
2.160098399E1,-2.554418147E-2,1.168245077E-2,3.951644897E-2
2.161691417E1,-3.791073710E-2,9.536981583E-3,2.068443298E-1
2.163293590E1,-3.288161010E-2,3.176087141E-2,1.639213562E-1
2.164886607E1,-2.937376872E-2,2.919960022E-2,-8.457279205E-2
2.166488780E1,2.449253760E-2,2.794200182E-2,-1.464500427E-1
2.168087901E1,-2.860393375E-3,4.592001438E-3,-8.905220032E-2
2.169683971E1,-6.059092656E-2,2.045679092E-2,-3.254890442E-3
2.171286143E1,-4.876583442E-2,2.307391167E-2,2.859401703E-1
2.172882213E1,6.497226655E-3,1.401507854E-2,2.379970551E-1
2.174481334E1,6.281873584E-2,4.151475430E-2,-1.495037079E-1
2.176083507E1,4.199544340E-2,1.453596354E-2,-3.146362305E-1
2.177679576E1,-2.713434771E-2,-1.702892780E-2,-2.075729370E-1
2.179281749E1,-7.322299480E-2,2.644687891E-2,6.892013550E-2
2.180880870E1,-1.165970266E-1,5.114495754E-2,3.456268311E-1
2.182479991E1,-6.696013361E-2,3.459084034E-2,4.030656815E-1
2.184082164E1,-9.064255282E-3,5.237859488E-2,1.264133453E-1
2.185678233E1,5.426984280E-2,5.178707838E-2,-1.857376099E-1
2.187277354E1,2.348152362E-2,3.527492285E-2,-2.757768631E-1
2.188876475E1,-3.217561916E-2,1.025098562E-2,-9.610462189E-2
2.190472545E1,-6.206465140E-2,-2.442568541E-2,1.022453308E-1
2.192074718E1,-6.058480963E-2,-4.795068502E-2,1.498432159E-1
2.193670787E1,-3.425502777E-2,-3.643447161E-2,8.763980865E-2
2.195272960E1,-1.953990944E-2,-9.303510189E-3,-1.514911652E-2
2.196872081E1,-2.621511184E-2,4.069513083E-2,-3.187847137E-2
2.198465098E1,-3.488805890E-2,8.963376284E-2,1.590156555E-2
2.200067271E1,-3.358144313E-2,1.074847579E-1,5.410194397E-2
2.201666392E1,-6.235398352E-3,6.110233068E-2,2.307033539E-2
2.203262462E1,4.643334076E-3,2.806037664E-2,1.129627228E-2
2.204858531E1,-1.053317823E-2,-1.433873177E-2,-7.232475281E-2
2.206451549E1,-1.046264172E-2,-1.932382584E-2,-4.357433319E-2
2.208053722E1,-2.745688334E-2,-8.783817291E-3,3.294181824E-2
2.209652843E1,-4.092264175E-2,1.736044884E-3,6.636905670E-2
2.211245860E1,-2.778336778E-2,8.749902248E-2,2.316150665E-1
2.212838878E1,-7.666386664E-4,4.775273800E-2,-4.936800003E-1
2.214437999E1,3.307218477E-2,2.707493305E-2,4.737329483E-1
2.216040172E1,1.047942601E-2,6.910771132E-2,-1.678085327E-1
2.217636241E1,-1.031626016E-3,-3.966856003E-2,2.704286575E-1
2.219235362E1,-6.709443033E-2,3.079181910E-2,-1.867294312E-1
2.220834483E1,-5.822236836E-2,3.408432007E-3,1.318035126E-1
2.222433604E1,-3.459531814E-2,-6.165027618E-3,-7.060050964E-3
2.224023570E1,-1.795127988E-2,4.597544670E-3,9.576797485E-3
2.225622691E1,-2.713790722E-2,3.292411566E-2,2.374172211E-2
2.227215709E1,-1.967980899E-2,2.486836910E-2,5.950164795E-2
2.228817882E1,-3.626970947E-2,3.962814808E-2,5.946254730E-2
2.230417003E1,-1.914172992E-2,3.393721581E-2,3.082466125E-2
2.232013072E1,-4.547435790E-3,1.831835508E-2,-4.961013794E-3
2.233612193E1,-4.975752905E-3,1.799595356E-2,-1.690101624E-2
2.235208262E1,-2.988511510E-2,1.156914234E-2,6.961822510E-3
2.236807384E1,-4.229352996E-2,3.203988075E-2,4.273986816E-2
2.238400401E1,-5.167579651E-2,1.191091537E-2,5.217456818E-2
2.240002574E1,-1.766236126E-2,2.493661642E-2,1.854991913E-2
2.241598643E1,1.905404031E-3,7.092952728E-6,6.438255310E-3
2.243200816E1,-9.809985757E-3,4.406690598E-3,2.299594879E-2
2.244796886E1,4.295596853E-3,-5.004107952E-3,3.231525421E-2
2.246399058E1,-1.496846415E-2,7.790803909E-3,1.523303986E-2
2.247998180E1,-2.240032144E-2,1.180988550E-2,-1.629352570E-2
2.249594249E1,-3.248219192E-2,2.644395828E-2,-9.614944458E-3
2.251196422E1,-4.705718532E-2,3.464019299E-2,6.570816040E-3
2.252792491E1,-3.198031709E-2,2.408218384E-2,2.751159668E-2
2.254391612E1,1.750010997E-4,1.346749067E-2,4.367446899E-2
2.255993785E1,-1.064714976E-2,1.938641071E-2,4.310417175E-2
2.257589854E1,-1.904110238E-2,-9.767413139E-4,-5.636215210E-4
2.259192027E1,-1.371486485E-2,1.053088903E-2,-5.148124695E-2
2.260791148E1,-9.035594761E-3,2.606207132E-2,-6.663990021E-2
2.262387218E1,-3.317648172E-2,1.039469242E-2,4.183769226E-3
2.263989390E1,-4.006680846E-2,2.638018131E-2,1.348276138E-1
2.265585460E1,-1.796340942E-2,1.119536161E-2,1.579685211E-1
2.267187633E1,-5.895160139E-3,6.701588631E-3,4.497814178E-2
2.268783702E1,-3.869414330E-3,1.849275827E-2,-7.993888855E-2
2.270385875E1,-1.472547650E-2,-2.904415131E-3,-1.189088821E-1
2.271978892E1,-3.635679185E-2,1.404333115E-2,-1.080265045E-1
2.273578014E1,-4.463049769E-2,2.383446693E-2,-3.050422668E-2
2.275174083E1,2.088097483E-2,2.342438698E-2,1.426649094E-1
2.276767100E1,4.237272590E-2,7.804751396E-3,1.844558716E-1
2.278366222E1,6.561315060E-2,-1.688230038E-2,-3.673839569E-2
2.279968394E1,1.660769060E-2,-4.125076532E-2,-2.076606750E-1
2.281561412E1,-3.333032504E-2,-3.451216221E-2,-1.515007019E-1
2.283160533E1,-8.809778094E-2,1.775324345E-2,6.950855255E-2
2.284762706E1,-1.021974236E-1,4.987829924E-2,3.313388824E-1
2.286361827E1,-5.983674526E-2,7.249176502E-2,3.662853241E-1
2.287960948E1,7.698925212E-3,5.245840549E-2,1.074266434E-1
2.289560069E1,1.528055687E-2,1.426160336E-2,-2.111835480E-1
2.291156139E1,-2.230709419E-3,-1.203656197E-3,-2.644710541E-1
2.292752208E1,-3.663970530E-2,-6.685000658E-2,-8.842086792E-2
2.294351329E1,-4.633555934E-2,-9.236407280E-2,6.581974030E-2
2.295950450E1,-2.440409362E-2,-1.046345830E-1,1.291980743E-1
2.297546519E1,-2.840647474E-3,-8.152252436E-2,1.042137146E-1
2.299148692E1,-5.681533366E-3,-2.034682035E-2,3.871917725E-2
2.300744762E1,-2.282385156E-2,1.929354668E-2,-1.718044281E-2
2.302346934E1,-2.010863647E-2,6.993740797E-2,1.072883606E-3
2.303939952E1,-5.463762209E-3,1.001567841E-1,2.524375916E-3
2.305539073E1,-7.897503674E-3,5.139225721E-2,9.258365631E-2
2.307135142E1,-1.152621955E-2,2.557885647E-2,5.344009399E-2
2.308737315E1,2.138020284E-2,-1.657944918E-2,-7.655143738E-2
2.310336436E1,2.027545311E-2,-4.234269261E-2,-9.171867371E-2
2.311932506E1,-3.051928431E-2,-3.301501274E-3,1.539726257E-1
2.313531627E1,-6.377456337E-2,-4.745441675E-2,-3.569011688E-1
2.315130748E1,-1.252603065E-2,1.626610756E-3,5.449590683E-1
2.316732921E1,-1.945700310E-2,3.035217524E-3,-1.978731155E-1
2.318332042E1,2.108215541E-2,-5.459517241E-3,1.846036911E-1
2.319928111E1,-1.182032004E-2,2.576825023E-2,-2.350206375E-1
2.321527232E1,-1.493199542E-2,3.856331110E-3,5.876922607E-2
2.323123302E1,-3.144105896E-2,-6.233304739E-3,3.895282745E-2
2.324725474E1,-2.394652180E-2,-2.769541740E-2,-3.592586517E-2
2.326324596E1,-1.449818164E-2,-4.835951328E-2,-2.700805664E-2
2.327917613E1,-1.018553413E-2,-4.932773113E-2,1.304721832E-2
2.329516734E1,-3.057657368E-2,-3.824564815E-2,3.397941589E-2
2.331112804E1,-3.206072003E-2,-4.752972722E-2,5.258846283E-2
2.332714976E1,-3.320441023E-2,-9.952574968E-3,6.615638733E-3
2.334314098E1,-1.452874951E-2,-3.743439913E-3,8.558273315E-3
2.335910167E1,2.609295771E-4,2.840688825E-2,2.490329742E-2
2.337506236E1,-1.644175872E-2,2.677738667E-5,3.410625458E-2
2.339105357E1,-3.124790639E-2,-7.576391101E-3,3.137779236E-2
2.340701427E1,-1.778893359E-2,-2.717387676E-2,3.106403351E-2
2.342303599E1,-2.152866311E-2,-4.423992336E-2,2.358531952E-2
2.343902721E1,-1.576519758E-2,-4.895994067E-2,1.133060455E-2
2.345498790E1,-3.117490746E-2,-4.111064970E-2,6.269454956E-3
2.347097911E1,-1.030671038E-2,-6.917703897E-2,1.559638977E-2
2.348697032E1,1.234729541E-3,-4.044858366E-2,1.059055328E-2
2.350290050E1,7.760681212E-3,-3.150427341E-2,1.998043060E-2
2.351892222E1,-7.442025002E-3,-1.367131621E-2,3.658008575E-2
2.353491344E1,-1.498576254E-2,-2.311426401E-2,7.714748383E-2
2.355090465E1,-2.977121621E-2,-2.920369059E-2,2.676486969E-2
2.356686534E1,-2.302031498E-3,-3.810132667E-2,-4.036331177E-2
2.358282603E1,-1.810568199E-2,-3.654573485E-2,-4.044818878E-2
2.359884776E1,-4.259568639E-3,-4.089217633E-2,4.805755615E-2
2.361483897E1,-2.392231952E-3,-3.701015562E-2,1.677093506E-1
2.363076915E1,-3.759156913E-2,-2.936183475E-2,1.221885681E-1
2.364679088E1,-3.940985352E-2,-2.195531130E-2,-2.626991272E-2
2.366272105E1,-2.892124653E-2,-2.767428011E-2,-1.671028137E-2
2.367874278E1,-3.875732049E-2,-3.420650214E-2,-5.264854431E-2
2.369470348E1,-8.252989501E-3,-4.094809294E-2,-2.753162384E-1
2.371069469E1,6.273817271E-2,-2.107602730E-2,-1.912498474E-2
2.372668590E1,5.526996404E-2,-5.368843302E-2,3.089370728E-1
2.374264659E1,5.105108023E-3,-7.210561633E-2,1.557731628E-1
2.375866832E1,-3.441166878E-2,-7.094894350E-2,-1.506376266E-1
2.377462901E1,-3.308854625E-2,-2.182986587E-2,-1.793041229E-1
2.379062022E1,-2.643884718E-2,3.319084644E-4,3.757476807E-4
2.380664195E1,-7.659026235E-2,2.583389729E-2,3.093805313E-1
2.382257213E1,-7.826736569E-2,1.634057611E-2,3.956775665E-1
2.383859386E1,-1.878142916E-2,1.981350780E-2,1.179637909E-1
2.385452403E1,1.836575568E-2,6.583556533E-4,-1.693639755E-1
2.387051524E1,1.364042982E-2,-2.844010293E-2,-2.962255478E-1
2.388647594E1,4.799276590E-3,-6.926034391E-2,-2.171030045E-1
2.390246715E1,-1.929054596E-2,-1.075704098E-1,4.165458679E-2
2.391848888E1,-3.483208269E-2,-1.427019536E-1,2.285776138E-1
2.393444957E1,-1.629349403E-2,-1.197500080E-1,2.789421082E-1
2.395044078E1,-1.265646890E-2,-1.184127480E-1,1.185112000E-1
2.396640147E1,-2.351614647E-2,-4.316751659E-2,-8.266258240E-2
2.398242320E1,1.833525300E-2,3.247540444E-2,-1.497182846E-1
2.399832286E1,1.462900639E-2,6.660603732E-2,-5.630302429E-2
2.401431407E1,1.925932430E-2,6.714088470E-2,9.940338135E-2
2.403024425E1,-1.102060825E-2,1.669621468E-2,1.760501862E-1
2.404626598E1,-2.744436264E-2,-5.284020305E-2,-4.905223846E-2
2.406225719E1,-2.921065316E-2,-1.065590084E-1,-2.238836288E-1
2.407818736E1,-4.817346856E-2,-1.166382581E-1,-1.319503784E-2
2.409417857E1,-3.495389223E-2,-1.011804789E-1,1.759300232E-1
2.411013927E1,4.475057870E-2,-9.350977838E-2,3.146934509E-1
2.412616099E1,4.802312702E-3,7.009506226E-4,1.564884186E-1
2.414215221E1,-2.113020793E-2,-5.888636410E-2,-4.207153320E-1
2.415814342E1,-1.008930895E-2,-1.806549728E-3,3.739757538E-1
2.417407359E1,-3.816849738E-2,-2.101320028E-2,-3.683795929E-1
2.419003429E1,-8.889783174E-3,-3.478474915E-2,2.420215607E-1
2.420605601E1,-6.220827252E-2,-2.412808314E-2,-2.943687439E-1
2.422207774E1,-4.469563067E-2,-4.199908674E-2,2.878856659E-2
2.423806895E1,-4.146594554E-2,-1.069248654E-2,-9.538650513E-3
2.425402965E1,-4.015459679E-3,-1.715435274E-2,-1.196193695E-2
2.427005138E1,2.368016727E-2,-1.434794720E-2,7.209777832E-3
2.428601207E1,2.467603609E-2,-2.017784677E-2,6.232547760E-2
2.430200328E1,-4.696534015E-3,-2.469900995E-2,7.200336456E-2
2.431796397E1,-2.622426860E-2,8.783422410E-3,6.499099731E-2
2.433392467E1,-3.782187030E-2,1.170587540E-2,3.172111511E-2
2.434988536E1,-2.823191136E-2,4.057316482E-2,3.313064575E-3
2.436590709E1,-1.633134857E-2,3.099942207E-2,3.962135315E-2
2.438189830E1,1.745539904E-2,2.358523011E-2,9.037113190E-2
2.439785899E1,3.339373507E-3,2.654965222E-2,5.498504639E-2
2.441385020E1,-1.929864287E-2,1.107411087E-2,-4.738903046E-2
2.442981090E1,-7.380180527E-3,5.754858255E-3,-1.258373260E-1
2.444583262E1,-1.704925857E-2,1.381760836E-2,-1.229419708E-1
2.446182384E1,4.592058249E-4,2.723723650E-2,9.537792206E-2
2.447778453E1,-2.947416157E-2,1.474589109E-2,2.180166245E-1
2.449377574E1,-5.406196415E-2,2.391970158E-2,7.987594604E-2
2.450973643E1,-1.472835895E-2,6.211638451E-3,-5.437850952E-3
2.452575816E1,-2.474384382E-2,3.620833158E-3,-7.156562805E-2
2.454171886E1,-4.081007466E-2,3.156670928E-2,-1.425943375E-1
2.455767955E1,2.378315106E-2,3.747168183E-2,1.788873672E-1
2.457367076E1,6.744012982E-2,5.904185772E-2,3.233737946E-1
2.458966197E1,5.749194697E-2,3.449857235E-2,-1.548004150E-2
2.460568370E1,1.528449915E-2,2.320781350E-2,-4.022159576E-1
2.462167491E1,-3.073397279E-2,3.882804513E-2,-3.967676163E-1
2.463763560E1,-5.939184129E-2,5.884891748E-2,-6.856155396E-2
2.465362681E1,-8.395958692E-2,7.750260830E-2,4.439449310E-1
2.466958751E1,-8.467810601E-2,4.852151871E-2,6.027297974E-1
2.468554820E1,-4.565006122E-2,3.161543608E-2,2.763023376E-1
2.470144786E1,1.435305364E-2,2.457374334E-2,-1.118793488E-1
2.471746959E1,3.271614388E-2,1.635360718E-2,-2.798938751E-1
2.473343028E1,9.101485834E-3,3.729426861E-2,-2.353792191E-1
2.474942149E1,-3.934571147E-2,3.223931789E-2,-5.245685577E-2
2.476541270E1,-7.342116535E-2,3.705960512E-2,9.199810028E-2
2.478137340E1,-5.656517297E-2,1.715195179E-2,1.216020584E-1
2.479739512E1,-3.401173651E-2,-8.726239204E-3,5.075073242E-2
2.481335582E1,1.273011509E-2,2.304720879E-2,-2.248764038E-2
2.482934703E1,9.028511122E-3,3.778123856E-2,-3.840160370E-2
2.484530772E1,-1.713832468E-2,8.289301395E-2,1.500606537E-2
2.486129893E1,-1.511640288E-2,8.533549309E-2,1.330327988E-1
2.487732066E1,-2.654691413E-2,7.195627689E-2,5.725288391E-2
2.489328136E1,-1.292559505E-2,5.565375090E-2,-4.480648041E-2
2.490930308E1,1.151442342E-2,2.899610996E-2,-7.276248932E-2
2.492526378E1,-1.254945621E-2,3.067809343E-2,-2.425575256E-2
2.494125499E1,-9.872850031E-3,3.325730562E-2,8.643817902E-2
2.495727672E1,-3.618051112E-2,2.532982826E-2,1.038351059E-1
2.497320689E1,-8.004102856E-4,5.163460970E-2,3.039550781E-2
2.498919810E1,-1.853273995E-2,4.675102234E-2,-2.148246765E-2
2.500518931E1,-1.480489783E-2,6.011182070E-2,5.532264709E-3
2.502118053E1,-1.536333933E-3,6.254088879E-2,6.131172180E-3
2.503708018E1,-1.425463706E-2,6.059163809E-2,4.261398315E-2
2.505307140E1,-2.894430794E-2,3.195595741E-2,2.406501770E-2
2.506903209E1,-1.973310299E-2,-1.692891121E-3,3.148078918E-3
2.508505382E1,-5.649376661E-3,7.835030556E-3,-1.777172089E-2
2.510107554E1,-1.565610990E-2,1.375198364E-2,-1.005840302E-2
2.511700572E1,-1.144603267E-2,-1.789540052E-2,-8.620548248E-2
2.513299693E1,-4.517827928E-2,1.140524149E-1,4.348278046E-2
2.514901866E1,-1.154277101E-2,2.081739902E-2,6.784057617E-2
2.516497935E1,-6.153572351E-3,8.435583115E-2,4.370775223E-1
2.518100108E1,1.324731298E-2,5.127918720E-2,-3.164844513E-1
2.519699229E1,-2.033146285E-2,2.810919285E-2,2.634973526E-1
2.521295299E1,-3.990368173E-2,3.753834963E-2,7.768630981E-3
2.522894420E1,-4.044613615E-2,2.414375544E-2,2.009010315E-2
2.524490489E1,-3.348202631E-2,3.969037533E-2,2.042293549E-2
2.526092662E1,-9.583594278E-3,2.618050575E-2,4.712581635E-2
2.527682628E1,-2.775378525E-4,2.664911747E-2,6.826400757E-3
2.529281749E1,2.091245726E-3,1.756852865E-2,-2.346992493E-3
2.530877818E1,-4.393123090E-4,3.507894278E-2,5.216598511E-3
2.532479991E1,-4.856472462E-2,3.850305080E-2,3.909015656E-2
2.534079112E1,-3.171602637E-2,3.944683075E-2,4.184913635E-2
2.535672130E1,-3.108982369E-2,4.505771399E-2,-8.048057556E-3
2.537271251E1,-1.414046995E-2,3.436475992E-2,-4.362487793E-2
2.538864268E1,2.200925723E-3,3.237229586E-2,-4.343318939E-2
2.540463390E1,-1.473216154E-2,3.208863735E-2,2.083778381E-3
2.542056407E1,-2.703111432E-2,3.464543819E-2,1.505079269E-1
2.543658580E1,-4.385785758E-2,4.192787409E-2,1.579122543E-1
2.545254649E1,-4.367252812E-2,4.141342640E-2,-9.169578552E-3
2.546856822E1,-2.786973491E-3,5.515551567E-2,-1.163806915E-1
2.548449840E1,-1.070337370E-2,3.586494923E-2,-4.909801483E-2
2.550052012E1,2.699751407E-3,4.082208872E-2,-8.024120331E-2
2.551648082E1,-1.344093308E-2,3.895866871E-2,2.067794800E-1
2.553244151E1,2.036081627E-3,3.000205755E-2,2.474164963E-1
2.554840221E1,3.580604866E-2,3.051137924E-2,-2.271461487E-2
2.556442393E1,1.555614732E-2,2.701532841E-2,-2.905235291E-1
2.558032359E1,-1.376289688E-2,1.289302111E-2,-2.979660034E-1
2.559634532E1,-3.534838557E-2,4.425203800E-2,-2.359485626E-2
2.561230601E1,-7.156606764E-2,6.944912672E-2,2.842092514E-1
2.562832774E1,-7.979149371E-2,6.614279747E-2,4.131240845E-1
2.564428844E1,-3.633597866E-2,5.806410313E-2,2.415170670E-1
2.566031016E1,3.382356092E-2,5.532735586E-2,-8.745384216E-2
2.567624034E1,1.555127837E-2,4.270690680E-2,-2.968997955E-1
2.569223155E1,-5.981558934E-3,1.670074463E-2,-1.647758484E-1
2.570819224E1,-5.153932795E-2,-8.052945137E-3,4.815101624E-2
2.572418346E1,-5.893502012E-2,-2.302300930E-2,1.197996140E-1
2.574011363E1,-3.302365169E-2,-2.595043182E-2,1.102743149E-1
2.575613536E1,-1.889519952E-2,-1.147449017E-2,2.670383453E-2
2.577209605E1,-3.339729831E-2,4.393029213E-2,-4.215240479E-3
2.578805675E1,-4.496861249E-2,8.164978027E-2,3.026008606E-3
2.580404796E1,-3.629264235E-2,8.916211128E-2,2.454280853E-2
2.582003917E1,-5.928202532E-3,8.383643627E-2,2.220439911E-2
2.583596934E1,2.678737789E-2,2.734231949E-2,-1.116847992E-2
2.585196056E1,3.588691354E-2,-1.231521368E-2,-4.933738708E-2
2.586792125E1,-4.672056064E-3,-1.742178202E-2,-6.209373474E-3
2.588391246E1,-4.566025361E-2,-1.499581337E-2,1.533508301E-2
2.589984264E1,-5.459825695E-2,3.500664234E-2,4.170036316E-2
2.591586436E1,-2.998064831E-2,6.070238352E-2,4.415988922E-2
2.593182506E1,9.502135217E-3,7.400977612E-2,3.807067871E-3
2.594781627E1,3.120896593E-2,6.391876936E-2,-7.869720459E-3
2.596377696E1,3.301781416E-2,3.288173676E-2,4.263973236E-2
2.597976817E1,2.502547577E-3,1.193892956E-2,3.563499451E-2
2.599578990E1,-4.441144317E-2,5.507409573E-3,3.579902649E-2
2.601172008E1,-4.761883989E-2,1.987636089E-3,-2.395629883E-3
2.602771129E1,-3.843867034E-2,-5.383133888E-3,-2.871417999E-2
2.604367198E1,-1.714220084E-2,-4.459559917E-3,-1.923084259E-2
2.605966319E1,-4.127050936E-2,3.763306141E-2,3.090572357E-2
2.607568492E1,-5.086810887E-2,3.632080555E-2,3.558444977E-2
2.609164561E1,-4.321192205E-2,4.103308916E-2,4.995822906E-2
2.610763682E1,-3.969434276E-2,1.065738201E-1,-5.460443497E-1
2.612359752E1,-2.515446395E-4,-5.467474461E-3,4.740819931E-1
2.613958873E1,-4.778228700E-3,8.460897207E-2,-8.846282959E-2
2.615554942E1,-2.016425133E-2,-2.737146616E-2,4.076671600E-2
2.617154063E1,-6.691102684E-2,6.004130840E-2,-3.597450256E-2
2.618750133E1,-5.292203650E-2,1.032578945E-2,-2.730579376E-1
2.620352306E1,-2.400330268E-2,3.386104107E-2,3.111686707E-1
2.621951427E1,-1.166604273E-2,1.895892620E-2,2.870750427E-2
2.623547496E1,3.220154718E-2,9.160399437E-3,9.536743164E-7
2.625146617E1,-7.835935801E-3,2.413690090E-3,-2.436637878E-3
2.626739635E1,-1.506433636E-2,1.794642210E-2,1.659965515E-2
2.628335704E1,-2.537243254E-2,3.419959545E-2,-1.711273193E-2
2.629931773E1,-5.720337108E-2,5.168884993E-2,2.566623688E-2
2.631527843E1,-2.423639782E-2,2.909815311E-2,5.880641937E-2
2.633126964E1,-2.466665208E-2,4.049456120E-2,4.641151428E-2
2.634723033E1,-1.710461825E-2,1.577818394E-2,2.915382385E-3
2.636319102E1,-1.433180086E-2,8.928775787E-4,-2.360630035E-2
2.637912120E1,-9.881608188E-3,-4.167556763E-3,-6.523036957E-2
2.639514293E1,-5.148988217E-3,2.466261387E-3,-5.893325806E-2
2.641113414E1,-1.169248298E-2,8.135795593E-3,7.412815094E-2
2.642712535E1,-2.987445518E-2,2.378040552E-2,1.882381439E-1
2.644308604E1,-2.638230473E-2,3.719037771E-2,1.423854828E-1
2.645907725E1,-8.614463732E-3,2.541428804E-2,-6.113910675E-2
2.647509898E1,6.212252192E-3,2.674663067E-2,-1.306972504E-1
2.649102916E1,-1.954673231E-2,1.017451286E-3,-8.093357086E-2
2.650705089E1,-4.043796659E-2,1.674294472E-3,-8.668708801E-2
2.652301158E1,-4.404303432E-2,2.671569586E-2,1.323633194E-1
2.653900279E1,4.182015732E-2,2.129989862E-2,1.792049408E-1
2.655502452E1,4.910870641E-2,1.624846458E-2,-9.908676147E-4
2.657098521E1,2.066754363E-2,-2.527403831E-2,-2.050685883E-1
2.658700694E1,-4.537311196E-2,-1.764875650E-2,-1.868066788E-1
2.660296764E1,-8.270670474E-2,-5.565524101E-3,1.782131195E-2
2.661898936E1,-1.013872102E-1,4.290890694E-2,2.942552567E-1
2.663498057E1,-7.777144015E-2,5.617886782E-2,4.156379700E-1
2.665094127E1,-5.146404728E-3,6.273579597E-2,1.475419998E-1
2.666693248E1,4.126781225E-2,6.525033712E-2,-1.633071899E-1
2.668289317E1,2.206612006E-2,8.138239384E-3,-3.357200623E-1
2.669891490E1,-3.630704060E-2,-3.952920437E-3,-1.737165451E-1
2.671481456E1,-7.776475698E-2,-4.643094540E-2,6.684780121E-2
2.673077525E1,-5.945290998E-2,-7.796359062E-2,2.093553543E-1
2.674676646E1,-5.994991213E-2,-8.319967985E-2,1.918592453E-1
2.676278819E1,-1.917130500E-2,-3.006672859E-2,5.018138885E-2
2.677877940E1,-3.781646490E-3,-3.322422504E-3,-5.797004700E-2
2.679474010E1,-2.551602200E-3,6.902992725E-2,-3.223991394E-2
2.681073131E1,-1.471314579E-3,1.100208759E-1,-1.883506775E-3
2.682666148E1,-2.041482553E-2,9.089267254E-2,1.099071503E-1
2.684259166E1,-2.817568742E-2,4.803377390E-2,7.582569122E-2
2.685852183E1,-2.301276848E-2,-2.977609634E-3,-5.633735657E-2
2.687451304E1,4.490721971E-3,-3.066408634E-2,-1.311683655E-1
2.689047374E1,1.122740004E-2,-5.222928524E-2,-5.155563354E-3
2.690643443E1,-2.461502142E-2,-2.275729179E-2,1.447610855E-1
2.692245616E1,-2.410477586E-2,-2.915924788E-2,1.224784851E-1
2.693844737E1,-2.926947549E-3,1.887774467E-2,7.647228241E-2
2.695440806E1,-2.106879838E-2,3.007519245E-2,3.053569794E-2
2.697036876E1,-2.717320062E-2,3.526663780E-2,-4.181385040E-2
2.698632945E1,6.104454864E-3,2.388560772E-2,-3.771495819E-2
2.700229014E1,-5.663208663E-3,1.510703564E-2,-1.941204071E-2
2.701822032E1,-9.943365119E-3,-1.913511753E-2,1.800441742E-2
2.703424205E1,-4.812464863E-2,-1.279723644E-2,1.235198975E-2
2.705020274E1,-4.876142368E-2,-2.617669106E-2,3.787803650E-2
2.706622447E1,-6.398750097E-2,-2.135521173E-2,4.671859741E-2
2.708221568E1,-3.615754843E-2,2.081811428E-3,3.645229340E-2
2.709820689E1,-2.008092962E-2,1.581162214E-2,3.099632263E-2
2.711419810E1,-2.759222873E-2,-1.075667143E-2,-2.665634155E-1
2.713015880E1,1.785536297E-2,2.580726147E-2,4.438028336E-1
2.714615001E1,-4.927237332E-2,1.055830717E-2,-4.619483948E-1
2.716211070E1,-1.556407381E-2,-3.126800060E-2,1.622257233E-1
2.717810191E1,-4.430615529E-2,7.834970951E-3,-5.631542206E-2
2.719412364E1,-3.490313515E-2,-3.948110342E-2,-2.437047958E-1
2.721008433E1,5.048602819E-3,-2.421221137E-2,9.438514709E-3
2.722610606E1,-2.436834015E-2,-4.131364822E-2,-1.518440247E-2
2.724203624E1,-8.230790496E-3,-3.347271681E-2,-2.786064148E-2
2.725805797E1,-1.121897530E-2,-1.289162040E-2,-1.181793213E-2
2.727404918E1,1.406661607E-2,5.336225033E-3,2.579593658E-2
2.729000987E1,7.382375188E-4,-3.800779581E-3,6.347751617E-2
2.730603160E1,-5.324085709E-3,-9.585767984E-3,1.203927994E-1
2.732202281E1,-4.951198772E-2,-2.875509858E-2,8.161354065E-2
2.733798350E1,-3.350745514E-2,-2.116689086E-2,-4.335880280E-2
2.735400523E1,-1.547580492E-2,-4.515260458E-3,-1.707773209E-1
2.736996593E1,1.849722117E-2,7.322847843E-3,-1.211671829E-1
2.738598765E1,2.436996251E-2,-1.227909327E-2,1.103715897E-1
2.740194835E1,-1.038803905E-2,-1.341131330E-2,3.157119751E-1
2.741793956E1,-6.954693049E-2,-3.314867616E-2,2.124261856E-1
2.743396129E1,-9.037119895E-2,-4.524020851E-2,-4.395580292E-2
2.744995250E1,-5.376684666E-2,-2.623876929E-2,-1.375913620E-1
2.746594371E1,-3.677956760E-2,-2.616985142E-2,-1.212129593E-1
2.748190440E1,4.458119161E-3,-5.855366588E-3,-2.222719193E-1
2.749786510E1,7.426758111E-2,9.479776025E-3,6.686878204E-2
2.751388682E1,6.073231995E-2,-3.483366966E-2,3.321743011E-1
2.752984752E1,5.237307400E-3,-4.404383898E-2,1.284112930E-1
2.754586925E1,-3.240249306E-2,-8.043164015E-2,-1.471118927E-1
2.756182994E1,-3.906638175E-2,-4.977803677E-2,-1.065187454E-1
2.757782115E1,-5.879438668E-2,8.563667536E-3,2.717208862E-2
2.759384288E1,-6.893812120E-2,2.754525095E-2,3.094711304E-1
2.760983409E1,-7.317242771E-2,4.951410741E-2,3.883581161E-1
2.762579478E1,-1.577273756E-2,3.696791828E-2,1.034097672E-1
2.764178599E1,2.911496907E-2,1.414462179E-2,-2.030563354E-1
2.765774669E1,5.654148757E-3,-3.685984761E-2,-3.012685776E-1
2.767373790E1,-1.024886966E-3,-8.306273073E-2,-1.505336761E-1
2.768972911E1,-3.634826094E-2,-1.032415926E-1,1.055078506E-1
2.770568980E1,-2.952007204E-2,-1.012870371E-1,2.419519424E-1
2.772168101E1,-3.235564008E-2,-1.089445502E-1,1.940402985E-1
2.773764171E1,-2.115811221E-2,-5.552630499E-2,2.492904663E-3
2.775363292E1,2.311058342E-3,8.930629119E-3,-1.244115829E-1
2.776962413E1,2.584023029E-2,7.135624439E-2,-1.100559235E-1
2.778558482E1,3.161280602E-2,9.211985767E-2,2.163982391E-2
2.780154552E1,-2.417676151E-4,5.249452591E-2,1.461830139E-1
2.781750621E1,-4.360985383E-2,5.157478154E-4,1.127214432E-1
2.783349742E1,-5.718953907E-2,-4.843228310E-2,-1.026973724E-1
2.784951915E1,-4.102130234E-2,-7.833047956E-2,-1.600637436E-1
2.786551036E1,5.404599011E-3,-7.407020777E-2,1.465368271E-1
2.788153209E1,5.789823830E-3,-6.730246544E-2,3.597574234E-1
2.789752330E1,3.471343964E-2,-2.805132419E-2,1.898508072E-1
2.791348399E1,1.984556764E-2,-1.605626941E-2,-7.585048676E-2
2.792947520E1,-1.553931832E-2,1.675987989E-2,-2.193889618E-1
2.794543590E1,-2.423441783E-2,8.095830679E-3,-1.521472931E-1
2.796145762E1,-1.273063943E-2,2.225482464E-2,6.121349335E-2
2.797744884E1,-2.006749809E-2,-1.821231842E-2,1.955671310E-1
2.799340953E1,-1.254233345E-2,-3.725890815E-2,1.862030029E-1
2.800937022E1,-2.669505402E-2,-7.168753445E-2,-3.824234009E-4
2.802530040E1,-1.946835965E-2,-1.059821844E-1,-8.879375458E-2
2.804126109E1,-1.268790290E-2,-7.061381638E-2,-7.897758484E-2
2.805722179E1,-4.270602018E-2,-1.723267138E-2,6.273365021E-2
2.807321300E1,-3.826724365E-2,1.064896584E-2,1.323165894E-1
2.808917369E1,-5.139995366E-3,1.972298324E-2,8.232402802E-2
2.810513438E1,2.809796482E-2,-5.409479141E-3,-5.982398987E-3
2.812112559E1,3.528721631E-3,-1.889339089E-2,-2.833585739E-1
2.813708629E1,-2.044372261E-3,-3.425812721E-2,4.018354416E-1
2.815310802E1,-6.964605302E-2,-5.807113647E-2,-4.116802216E-1
2.816912974E1,2.077224851E-2,-9.963563085E-2,2.400503159E-1
2.818509044E1,-6.361171603E-3,-3.930342197E-2,-3.738403320E-3
2.820105113E1,1.278139651E-2,-1.079081297E-1,-7.528972626E-2
2.821695079E1,5.783841014E-3,-7.196685672E-2,-3.442192078E-2
2.823297252E1,-1.872615516E-2,-4.056993127E-2,-9.169960022E-2
2.824896373E1,-2.553756163E-2,-1.547694206E-2,-1.368741989E-1
2.826489390E1,-3.243587166E-2,1.244890690E-2,-4.067707062E-2
2.828088512E1,-2.148972824E-2,3.394713998E-2,1.609001160E-1
2.829684581E1,-2.892531082E-2,-2.328631282E-2,2.186536789E-1
2.831286754E1,-1.505489275E-2,-4.879218340E-2,8.940315247E-2
2.832879771E1,-3.259257600E-2,-7.309627533E-2,-4.477500916E-2
2.834478892E1,-5.919919908E-2,-9.004226327E-2,-7.121181488E-2
2.836071910E1,-1.033507288E-1,-7.363080978E-2,-2.124929428E-1
2.837674083E1,1.621228456E-2,-3.679108620E-2,-7.592582703E-2
2.839273204E1,9.641902894E-2,-3.948262334E-2,3.287534714E-1
2.840869273E1,8.566378057E-2,-4.850313067E-2,2.661581039E-1
2.842471446E1,1.452542096E-2,-7.027587295E-2,-6.966304779E-2
2.844070567E1,-5.328733847E-2,-8.639109135E-2,-2.857351303E-1
2.845669688E1,-8.135163039E-2,-2.400144935E-2,-1.424322128E-1
2.847259654E1,-6.374475360E-2,2.457994223E-2,1.853466034E-1
2.848858775E1,-4.776369408E-2,5.106142163E-2,3.980417252E-1
2.850451793E1,-8.573640138E-3,2.274703979E-2,3.158960342E-1
2.852047862E1,1.256638765E-2,-4.184633493E-3,3.732681274E-3
2.853640880E1,1.862506941E-2,-2.466000617E-2,-2.125730515E-1
2.855243053E1,-3.095478937E-2,-6.568466127E-2,-2.083826065E-1
2.856839122E1,-4.397245124E-2,-9.205867350E-2,-8.666896820E-2
2.858438243E1,-6.380335242E-2,-1.031361222E-1,4.471588135E-2
2.860040416E1,-3.763173893E-2,-7.513406873E-2,2.024335861E-1
2.861633433E1,-3.880240023E-2,-6.251706183E-2,2.308111191E-1
2.863235606E1,-3.229554743E-3,-4.556252062E-2,9.398746490E-2
2.864831676E1,1.217715442E-3,3.774032369E-2,-1.121892929E-1
2.866427745E1,1.159336418E-3,9.127131850E-2,-1.386947632E-1
2.868029918E1,-9.675089270E-3,1.109899729E-1,-2.625560760E-2
2.869629039E1,-4.688934982E-2,1.031646803E-1,1.939706802E-1
2.871225108E1,-5.113130063E-2,6.666488945E-2,9.580802917E-2
2.872824229E1,-5.639513955E-3,1.132885739E-2,-9.566497803E-2
2.874423350E1,-1.468299888E-3,-3.677396849E-2,-8.358097076E-2
2.876025523E1,-3.361228853E-3,-5.546871945E-2,1.950645447E-2
2.877615489E1,-5.776945874E-2,-3.992604837E-2,7.943534851E-2
2.879217662E1,-3.946716338E-2,-2.572708577E-2,1.348066330E-1
2.880813731E1,-9.916488081E-3,6.961300969E-3,1.135559082E-1
2.882415904E1,1.439452264E-2,5.032134056E-2,2.773475647E-2
2.884011973E1,1.076407451E-2,5.606792867E-2,-4.846763611E-2
2.885614146E1,1.009213738E-2,6.177790463E-2,-5.523395538E-2
2.887207164E1,-4.028007388E-2,4.602210224E-2,-2.370834351E-2
2.888806285E1,-4.321204126E-2,4.853183031E-2,3.894042969E-2
2.890402354E1,-4.813514650E-2,3.461390734E-3,3.935813904E-2
2.892004527E1,-3.595450521E-2,-1.097419858E-2,3.263568878E-2
2.893594493E1,1.186656579E-2,1.460719109E-2,4.511737823E-2
2.895196666E1,9.207647294E-3,-8.492529392E-3,4.807853699E-2
2.896792735E1,-5.682114046E-3,1.564061642E-2,4.630947113E-2
2.898394908E1,-1.350190025E-2,3.761219978E-2,3.259658813E-2
2.899990977E1,-2.164523304E-2,5.774557590E-2,1.411056519E-2
2.901590098E1,-3.991014138E-2,6.432533264E-2,9.990692139E-3
2.903189220E1,-4.150927067E-2,5.992868543E-2,1.065063477E-2
2.904785289E1,-5.731644109E-2,6.517496705E-2,4.724597931E-2
2.906387462E1,-4.691237211E-2,4.676586390E-2,2.639770508E-2
2.907986583E1,-7.865312509E-3,9.243875742E-3,5.571365356E-3
2.909585704E1,-1.428911276E-2,1.014617085E-2,3.025722504E-2
2.911187877E1,-2.556819096E-2,5.476883054E-2,1.028203964E-1
2.912783946E1,5.815823562E-3,-2.417120337E-2,-2.292594910E-1
2.914383067E1,-6.175139919E-3,2.047955990E-2,4.226198196E-1
2.915979136E1,-3.460395709E-2,5.448240042E-2,-4.219284058E-1
2.917578258E1,-4.906101152E-3,6.440341473E-2,4.693393707E-1
2.919177379E1,-3.225729614E-2,1.154959798E-1,-4.227161407E-2
2.920773448E1,-4.261985421E-2,9.162998199E-2,4.063911438E-1
2.922372569E1,-2.938378230E-2,4.314714670E-2,-2.833938599E-2
2.923968639E1,-3.945106640E-3,3.475040197E-2,-6.571483612E-2
2.925570811E1,-1.986320503E-2,2.291977406E-2,-1.416063309E-1
2.927163829E1,-1.998654753E-2,4.714465141E-2,1.676759720E-1
2.928762950E1,-9.646425024E-3,2.815228701E-2,3.310737610E-1
2.930355968E1,4.279094934E-2,4.636019468E-2,1.841640472E-2
2.931955089E1,2.222656459E-2,1.436960697E-2,-3.516807556E-1
2.933545054E1,-4.961089231E-3,4.735827446E-3,-4.421749115E-1
2.935147227E1,-3.665534407E-2,2.678161860E-2,-1.239452362E-1
2.936746348E1,-8.085166663E-2,5.605494976E-2,3.736896515E-1
2.938345470E1,-8.936246485E-2,5.542689562E-2,6.206541061E-1
2.939944591E1,-5.955904722E-2,5.259376764E-2,3.298988342E-1
2.941540660E1,4.305853043E-3,5.661213398E-2,-1.398420334E-1
2.943142833E1,2.408392727E-2,6.029570103E-2,-3.105649948E-1
2.944738902E1,-1.222304255E-2,6.632065773E-2,-2.209949493E-1
2.946341075E1,-4.157925397E-2,6.781697273E-2,-1.466178894E-2
2.947937144E1,-5.826137215E-2,2.808475494E-2,9.815883636E-2
2.949539317E1,-4.282712191E-2,-6.622910500E-3,9.383106232E-2
2.951138438E1,-2.046298794E-2,-2.652084827E-2,5.135250092E-2
2.952734508E1,-4.909124598E-2,1.101994514E-2,-7.878303528E-3
2.954336680E1,-4.436622560E-2,4.043334723E-2,1.657867432E-2
2.955932750E1,-2.691739611E-2,9.225046635E-2,1.463508606E-2
2.957534923E1,2.272429410E-3,9.567260742E-2,4.625701904E-2
2.959127940E1,-5.924038589E-3,7.943546772E-2,-1.066207886E-2
2.960727061E1,-1.368974056E-2,4.193598032E-2,1.380348206E-2
2.962323131E1,-2.238359675E-2,5.109190941E-3,-2.882003784E-2
2.963925304E1,-3.142502159E-2,3.151190281E-2,-3.561019897E-2
2.965524425E1,-2.374071255E-2,4.686820507E-2,5.089950562E-2
2.967120494E1,-1.607423276E-2,4.277265072E-2,1.182804108E-1
2.968719615E1,-1.561016869E-2,4.868012667E-2,6.851482391E-2
2.970318736E1,2.738892287E-2,6.805843115E-2,1.164531708E-2
2.971920909E1,-1.426484622E-2,6.155329943E-2,-9.346008301E-3
2.973520030E1,-1.343085244E-2,4.640036821E-2,1.746940613E-2
2.975119151E1,-3.631105646E-2,3.694558144E-2,-3.674507141E-3
2.976718272E1,-3.695274889E-2,2.572411299E-2,-9.279251099E-4
2.978314342E1,-3.940395266E-2,2.907454967E-3,-6.065368652E-4
2.979910411E1,-2.747302130E-2,-5.040526390E-3,1.643085480E-2
2.981506480E1,-4.666185379E-2,2.778249979E-2,7.126808167E-3
2.983105601E1,-3.690911084E-2,2.453905344E-2,4.093456268E-2
2.984704722E1,-3.160372004E-2,4.741680622E-2,2.687740326E-2
2.986297740E1,-2.326387912E-2,5.544632673E-2,-1.499176025E-3
2.987893809E1,-1.511272229E-2,6.605786085E-2,8.416175842E-3
2.989486827E1,-3.323005512E-4,6.748908758E-2,1.590251923E-2
2.991089000E1,-9.584276937E-3,4.528099298E-2,1.814842224E-3
2.992682017E1,-3.801834583E-2,3.320223093E-2,1.161956787E-2
2.994281139E1,-4.034566507E-2,1.867789030E-2,4.058265686E-2
2.995880260E1,-4.759722576E-2,2.061325312E-2,2.408313751E-2
2.997473277E1,-2.345084399E-2,1.517271996E-2,9.997367859E-3
2.999075450E1,7.422966883E-4,1.954954863E-2,-1.713752747E-3
3.000674571E1,-1.091116108E-2,2.195400000E-2,9.002685547E-4
3.002267589E1,-5.759513006E-3,3.184783459E-2,2.503490448E-2
3.003869762E1,-2.483173460E-2,3.689056635E-2,2.283954620E-2
3.005465831E1,-1.308520697E-2,6.340509653E-2,3.741073608E-2
3.007064952E1,-1.797347516E-2,3.484404087E-2,1.846408844E-2
3.008664073E1,-2.504409850E-2,3.244483471E-2,6.716728210E-3
3.010257091E1,-2.959885634E-2,3.722292185E-2,5.722045898E-2
3.011856212E1,-2.920133621E-2,7.575130463E-2,1.531934738E-1
3.013452281E1,-9.850664064E-3,-2.867156267E-2,-2.441043854E-1
3.015054454E1,-9.905153885E-3,6.990915537E-2,6.470775604E-2
3.016650523E1,-1.694129035E-2,3.176271915E-2,-3.593053818E-1
3.018249644E1,-3.572311997E-2,2.813303471E-2,5.575656891E-1
3.019845714E1,-3.253287077E-2,8.009564877E-2,-1.244897842E-1
3.021444835E1,-2.660038695E-2,2.426493168E-2,-6.410884857E-2
3.023047008E1,-1.680386066E-2,2.072173357E-2,-1.332035065E-1
3.024643077E1,-2.367766015E-2,4.050928354E-2,-1.045379639E-1
3.026239146E1,-6.814501435E-2,2.096456289E-2,2.781867981E-3
3.027841319E1,-4.024194926E-2,4.765993357E-2,3.111486435E-1
3.029440440E1,2.727351710E-2,4.246991873E-2,2.058382034E-1
3.031033458E1,6.991890073E-2,2.813839912E-2,-1.552391052E-1
3.032632579E1,2.991202287E-2,5.404531956E-3,-3.346900940E-1
3.034228648E1,-3.074721992E-2,-2.312719822E-3,-2.251844406E-1
3.035830821E1,-8.427947760E-2,4.383188486E-2,9.924507141E-2
3.037429942E1,-9.648590535E-2,6.308358908E-2,4.000215530E-1
3.039026012E1,-5.643160641E-2,6.014639139E-2,3.976764679E-1
3.040622081E1,1.208134554E-2,5.496746302E-2,7.799625397E-2
3.042218150E1,7.366554439E-2,3.807920218E-2,-2.510442734E-1
3.043820323E1,2.065125387E-3,2.292716503E-2,-2.670478821E-1
3.045419444E1,-5.413723737E-2,-1.464116573E-2,-7.079410553E-2
3.047015514E1,-8.171686530E-2,-2.681499720E-2,1.035461426E-1
3.048611583E1,-7.529456168E-2,-3.127920628E-2,1.799030304E-1
3.050204600E1,-2.951229922E-2,-2.476739883E-2,9.138107300E-2
3.051800670E1,-1.405047253E-2,3.113412857E-2,-3.057575226E-2
3.053393687E1,-3.022233024E-3,5.287533998E-2,-3.059291840E-2
3.054992808E1,-1.626268774E-2,9.336692095E-2,9.902954102E-3
3.056588878E1,-1.065951400E-2,9.792083502E-2,7.306098938E-3
3.058187999E1,-2.442595363E-2,4.855871201E-2,7.425880432E-2
3.059790172E1,-2.507387847E-2,7.171273232E-3,-4.059696198E-2
3.061383189E1,-9.699163027E-3,-2.462476492E-2,-6.447410583E-2
3.062985362E1,-1.248641126E-2,-9.427130222E-3,-4.061126709E-2
3.064584483E1,-1.466147136E-2,-7.243156433E-4,5.740833282E-2
3.066180553E1,-3.764764965E-2,1.940166950E-2,7.647228241E-2
3.067779674E1,-3.195441514E-2,4.502075911E-2,4.781055450E-2
3.069372691E1,-6.420612335E-4,5.587536097E-2,-4.755973816E-3
3.070974864E1,8.082842454E-3,5.555105209E-2,2.160835266E-2
3.072573985E1,9.095535614E-3,2.555447817E-2,5.262660980E-2
3.074176158E1,-1.702036709E-3,6.565928459E-3,2.104759216E-3
3.075775279E1,-2.850590274E-2,1.571524143E-2,-1.506233215E-2
3.077371348E1,-3.345010430E-2,2.405703068E-3,-1.081752777E-2
3.078970470E1,-3.102455847E-2,-4.423499107E-3,-9.119033813E-3
3.080566539E1,-3.813008964E-2,1.689732075E-3,1.404476166E-2
3.082162608E1,-4.769152775E-2,2.725780010E-2,3.479576111E-2
3.083758678E1,-3.800322860E-2,2.080672979E-2,8.675765991E-2
3.085351695E1,-1.327125076E-2,3.188502789E-2,3.831577301E-2
3.086953868E1,-1.510985475E-2,3.788018227E-2,-2.206802368E-2
3.088546886E1,-7.558799349E-3,3.525626659E-2,-4.422569275E-2
3.090146007E1,-2.181600034E-2,3.645724058E-2,-1.382923126E-2
3.091742076E1,-1.443770900E-2,4.788142443E-2,2.849006653E-2
3.093341197E1,-4.540904239E-2,9.325623512E-3,6.361103058E-2
3.094943370E1,-3.067555465E-2,-8.239567280E-3,5.329704285E-2
3.096539439E1,-4.406073317E-2,-2.721309662E-3,6.461143494E-2
3.098141612E1,-2.148925327E-2,-6.904780865E-3,-3.067970276E-3
3.099734630E1,-2.082832344E-2,6.396353245E-3,-2.291488647E-2
3.101336803E1,4.204402678E-3,6.605386734E-3,-2.130794525E-2
3.102926768E1,-6.761275232E-3,1.772332191E-2,1.751899719E-3
3.104522838E1,-3.003346547E-2,2.023863792E-2,3.432369232E-2
3.106115855E1,-4.128259793E-2,4.094618559E-2,8.853340149E-2
3.107718028E1,-3.553730249E-2,2.320408821E-4,2.555751801E-2
3.109311046E1,-1.349784620E-2,2.319812775E-3,-3.020381927E-2
3.110910167E1,1.055205986E-2,-3.662502766E-2,4.861030579E-1
3.112509288E1,-4.191688448E-2,2.036774158E-2,-4.390687943E-1
3.114105357E1,3.226898611E-3,-6.570065022E-2,1.958370209E-2
3.115707530E1,-4.273287579E-2,5.123376846E-2,2.127017975E-1
3.117297496E1,-2.404325455E-2,-3.382110596E-2,2.058887482E-2
3.118899669E1,4.555813968E-3,1.451265812E-2,3.001909256E-1
3.120492686E1,-2.322769910E-2,-4.393875599E-3,-3.373298645E-1
3.122091807E1,-3.459409624E-2,9.624004364E-3,-1.108102798E-1
3.123690929E1,-1.931565255E-2,-5.794882774E-3,-1.621055603E-2
3.125286998E1,2.794479951E-2,-8.582293987E-3,1.166887283E-1
3.126889171E1,4.390746355E-2,-1.299089193E-2,9.663486481E-2
3.128485240E1,2.285644878E-3,-2.761840820E-2,4.957199097E-3
3.130087413E1,-1.274324302E-2,-4.030042887E-2,-6.273460388E-2
3.131683482E1,-5.837382376E-2,1.377010345E-2,3.540992737E-3
3.133285655E1,-7.235950232E-2,4.268163443E-2,1.679306030E-1
3.134878673E1,-6.435504556E-2,6.381756067E-2,2.822246552E-1
3.136477794E1,-2.665007487E-2,7.193911076E-2,1.765737534E-1
3.138073863E1,1.620204374E-2,5.019915104E-2,-1.204233170E-1
3.139676036E1,-1.582253352E-2,3.104799986E-2,-2.020788193E-1
3.141269054E1,-4.595377296E-2,-4.195144773E-2,-1.643314362E-1
3.142868175E1,-5.181486532E-2,-9.730803967E-2,-3.587436676E-2
3.144467296E1,-2.414798737E-2,-1.254703999E-1,1.189060211E-1
3.146063365E1,-1.320292987E-2,-1.036989391E-1,2.044115067E-1
3.147656383E1,-2.322126366E-2,-6.490674615E-2,1.201534271E-1
3.149258556E1,-3.026597202E-2,-4.122853279E-3,-2.625751495E-2
3.150851573E1,-2.231824584E-2,4.674643278E-2,-8.176898956E-2
3.152450694E1,8.776633069E-3,9.838750958E-2,-7.515621185E-2
3.154049815E1,7.174033672E-3,8.963724971E-2,5.589866638E-2
3.155651988E1,-1.452249475E-2,5.108019710E-2,9.364414215E-2
3.157251109E1,-2.112697065E-2,-1.539859176E-2,-4.570007324E-2
3.158844127E1,-5.460470915E-3,-5.775374174E-2,-8.926677704E-2
3.160443248E1,-2.718055807E-2,-8.166888356E-2,3.711318970E-2
3.162039317E1,-3.404431045E-2,-5.803722143E-2,1.611318588E-1
