"Time (s)","Linear Acceleration x (m/s^2)","Linear Acceleration y (m/s^2)","Linear Acceleration z (m/s^2)"
3.226634200E-2,3.721502304E0,1.444882393E0,-4.153747559E-1
4.825755300E-2,-6.841812730E-1,5.838346481E-1,2.877902985E-2
6.415721100E-2,1.386893511E0,1.244799018E0,4.338436127E-1
8.011790500E-2,1.276417255E0,1.088851929E0,5.497369766E-1
9.610911600E-2,1.184727550E0,8.993169665E-1,4.027938843E-1
1.121003270E-1,-1.519303441E0,-1.377476215E0,1.486272812E-1
1.280610200E-1,-2.254325747E-1,6.597489119E-1,-4.641351700E-1
1.440827490E-1,-8.626292348E-1,-1.379854441E0,1.649456024E-1
1.600434420E-1,5.523888469E-1,1.019268036E0,8.392524719E-2
1.760346530E-1,-1.510605216E0,-6.777520180E-1,1.051600456E0
1.919953460E-1,2.791045904E0,7.746734619E-1,-8.274326324E-1
2.079560400E-1,-1.318960905E0,-1.295736790E0,8.392267227E-1
2.238862150E-1,8.137371540E-1,-1.262271881E0,-1.495962143E-1
2.399079440E-1,-1.162834287E0,-6.608879566E-2,-3.750705719E-2
2.558991550E-1,2.681617022E0,1.202291012E0,3.422136307E-1
2.718903660E-1,-1.493054509E0,-9.553605318E-1,3.077106476E-1
2.878510590E-1,1.550666571E0,1.153996229E0,1.686439514E-1
3.038117520E-1,2.842366934E0,-6.091749668E-2,-5.492010117E-1
3.198029630E-1,2.019115925E0,1.001489878E0,3.106546402E-1
3.357636570E-1,-8.111898303E-1,-7.490932941E-3,2.964715958E-1
3.517853850E-1,2.710428953E0,4.727441669E-1,3.734188080E-1
3.677460790E-1,1.814496994E0,-5.080400705E-1,5.357742310E-3
3.836762540E-1,1.905458272E-1,-1.041023374E0,-2.165088654E-1
3.996979830E-1,1.705695152E0,-3.164655566E-1,1.960840225E-1
4.156891940E-1,1.942698121E0,4.486703873E-1,-3.060188293E-1
4.316804050E-1,-2.146546245E-1,-7.086722255E-1,3.936080933E-1
4.476410980E-1,1.869540215E0,3.515177369E-1,2.295017242E-2
4.636323090E-1,9.117822647E-1,-6.933242679E-1,1.860475540E-1
4.796235200E-1,7.674965262E-2,-6.442579031E-1,8.101654053E-2
4.956147310E-1,-2.353167534E-2,-4.273904860E-1,-9.476184845E-2
5.116059420E-1,1.826758236E-1,-3.653586805E-1,3.143863678E-1
5.275666350E-1,5.046988726E-1,-3.327512145E-1,-3.055353165E-1
5.435883640E-1,9.547734857E-1,-6.981623173E-2,1.617641449E-1
5.595490570E-1,4.080417752E-1,2.015423775E-2,-3.666534424E-1
5.755097500E-1,2.881910503E-1,-2.408840656E-1,9.383487701E-2
5.915009610E-1,3.623082042E-1,1.810234785E-2,1.046314240E-1
6.074616550E-1,4.159363210E-1,-1.535059214E-1,-4.454231262E-2
6.234833830E-1,3.933300376E-1,-2.750658989E-2,4.339361191E-1
6.394440770E-1,4.812081158E-1,-2.012401819E-2,-1.479063034E-1
6.554047700E-1,3.653663993E-1,-1.861631870E-2,3.023061752E-1
6.713959810E-1,2.045599520E-1,-1.322394609E-2,2.707290649E-2
6.873566740E-1,1.456145048E-1,-4.034483433E-2,2.236938477E-2
7.033784030E-1,1.642129123E-1,-5.721890926E-2,2.720928192E-2
7.193390960E-1,2.970397174E-1,-8.031022549E-2,3.199958801E-2
7.352997900E-1,2.893621325E-1,-1.099117100E-1,2.001285553E-2
7.512910000E-1,2.423301935E-1,-1.083709896E-1,3.438472748E-2
7.672516940E-1,1.736499220E-1,-9.164828062E-2,1.013545990E-1
7.832734220E-1,1.587990820E-1,-7.731664181E-2,1.301403046E-1
7.992035980E-1,1.679828018E-1,-4.599630833E-2,8.011722565E-2
8.151642910E-1,1.703590155E-1,-2.901077271E-2,-9.174346924E-4
8.311249850E-1,1.657864451E-1,-3.389209509E-2,8.906364441E-3
8.470856780E-1,1.502816677E-1,-1.788651943E-2,-6.053447723E-2
8.631074070E-1,1.525174677E-1,2.332490683E-2,-1.229839325E-1
8.790681000E-1,1.752514988E-1,7.375794649E-2,8.262538910E-2
8.950287930E-1,1.981899291E-1,6.900537014E-2,3.961267471E-1
9.109894870E-1,1.871115416E-1,6.487137079E-2,4.515466690E-1
9.270112150E-1,1.150823087E-1,3.432995081E-2,6.937885284E-2
9.429719090E-1,8.168452978E-2,-4.057526588E-3,-1.402502060E-1
9.589326020E-1,3.305691481E-2,-3.048568964E-2,-1.083173752E-1
9.749238130E-1,-1.971602440E-3,-6.643623114E-2,-2.564258575E-1
9.908845060E-1,4.139065742E-2,-2.864938974E-2,6.651782990E-2
1.006936752E0,1.965290904E-1,-1.190686226E-2,4.779787064E-1
1.022897446E0,2.371387333E-1,-1.181852818E-2,5.654525757E-2
1.038858139E0,1.762874126E-1,-2.599954605E-3,-3.481798172E-1
1.054818833E0,5.924084783E-2,2.986270189E-2,-2.985725403E-1
1.070779526E0,2.897934616E-2,9.444689751E-2,5.931854248E-2
1.086801254E0,7.288949192E-2,1.286855340E-1,4.193401337E-1
1.102761948E0,1.529764831E-1,9.904229641E-2,4.396200180E-1
1.118722641E0,1.611632854E-1,-3.710427880E-2,-1.166734695E-1
1.134713852E0,1.004839242E-1,5.424767733E-3,-8.616065979E-2
1.150674545E0,-3.340557218E-3,-1.535808444E-1,-4.197177887E-1
1.166696274E0,6.497517228E-3,-9.447655082E-2,3.860702515E-1
1.182656967E0,5.086223781E-2,-1.332738996E-1,-2.423496246E-1
1.198617661E0,1.641679406E-1,-1.213160753E-1,4.581193924E-1
1.214608872E0,1.581371129E-1,-5.161115527E-2,1.676158905E-1
1.230630600E0,8.647920191E-2,-6.233751774E-3,5.683994293E-2
1.246560776E0,2.771864831E-2,4.594865441E-2,8.973884583E-2
1.262490952E0,2.091233432E-2,8.125409484E-2,1.370010376E-1
1.278512680E0,5.304498971E-2,6.167468429E-2,-8.387851715E-2
1.294473374E0,4.611787200E-2,2.376249433E-2,-2.066516876E-1
1.310495102E0,5.669447780E-2,-2.420797944E-2,-3.259372711E-2
1.326425278E0,6.664729118E-2,-5.868297815E-2,6.488037109E-2
1.342385971E0,5.458728969E-2,-8.048398793E-2,1.696510315E-1
1.358407700E0,8.375433087E-2,-7.445688546E-2,2.266530991E-1
1.374398911E0,8.935809135E-2,-4.385636747E-2,1.736373901E-1
1.390390122E0,9.691381454E-2,-6.210267544E-3,3.451061249E-2
1.406350815E0,7.565613091E-2,1.468940079E-2,-2.319335938E-2
1.422342026E0,5.311164260E-2,2.098929882E-2,-5.938339233E-2
1.438333237E0,9.290874004E-3,-1.758974791E-2,-7.883167267E-2
1.454293930E0,-7.384166121E-3,-5.364271253E-2,-4.796600342E-2
1.470254624E0,1.829540730E-2,-7.710447162E-2,1.026678085E-1
1.486215317E0,5.381116271E-2,-1.053499281E-1,1.767473221E-1
1.502176010E0,1.024062485E-1,-1.119139642E-1,1.574926376E-1
1.518167221E0,9.694804251E-2,-9.847135842E-2,4.967117310E-2
1.534158432E0,7.385995984E-2,-7.168918848E-2,-4.135894775E-2
1.550149643E0,5.916862190E-2,-3.617842495E-2,-2.940940857E-2
1.566110336E0,2.123519778E-2,1.070304960E-2,5.197334290E-2
1.582101547E0,3.947255015E-2,3.651724011E-2,3.997898102E-2
1.598092758E0,5.286689103E-2,4.019434005E-2,-1.030254364E-2
1.614053452E0,3.158648312E-2,2.167667821E-2,-6.933212280E-4
1.630075180E0,3.118497133E-2,-7.252413779E-3,8.316230774E-2
1.646035874E0,4.964810610E-2,-5.687083304E-2,1.406917572E-1
1.662057602E0,4.668869078E-2,-9.209453315E-2,1.646928787E-1
1.678018295E0,3.754249215E-2,-8.929126710E-2,1.575393677E-1
1.693948471E0,7.021082938E-2,-7.359180599E-2,-2.442073822E-2
1.709939682E0,4.897901416E-2,-4.615706950E-2,-2.398586273E-1
1.725900375E0,2.569471300E-2,-3.496114910E-2,-2.229681015E-1
1.741891586E0,7.395237684E-3,-9.702831507E-3,9.564876556E-2
1.757882797E0,7.218107581E-3,-2.416818589E-2,3.879117966E-1
1.773874008E0,1.770843565E-2,-4.214175045E-2,3.568897247E-1
1.789895737E0,2.289231122E-2,-6.739270687E-2,-4.292106628E-2
1.805856430E0,2.253033221E-2,-9.905993938E-2,-1.554479599E-1
1.821847641E0,-1.251958311E-2,-6.712312996E-2,-5.239486694E-2
1.837869370E0,-1.235865057E-2,-5.305640399E-2,-3.969526291E-1
1.853799545E0,1.137821823E-1,2.647188306E-2,1.276988983E-1
1.869790756E0,1.254253685E-1,-4.601800442E-2,5.829753876E-1
1.885751450E0,8.184060454E-2,-6.127558649E-2,3.800392151E-3
1.901773178E0,4.073989391E-2,-6.165759265E-2,-3.121395111E-1
1.917733872E0,1.994237304E-2,-2.665407956E-2,-7.254791260E-2
1.933694565E0,2.536997199E-3,7.367432117E-3,2.246847153E-1
1.949685776E0,-7.100656629E-3,3.211620450E-2,4.596681595E-1
1.965646469E0,-1.618777215E-2,7.106229663E-3,3.305101395E-1
1.981637680E0,2.116657794E-2,-3.252305090E-2,-5.507564545E-2
1.997628891E0,5.373521149E-2,-6.714685261E-2,-2.395420074E-1
2.013589584E0,2.665591240E-2,-9.181866050E-2,-2.035741806E-1
2.029580795E0,2.895027399E-3,-8.900192380E-2,-1.898956299E-2
2.045541489E0,2.321916819E-2,-7.737195492E-2,1.512584686E-1
2.061563217E0,4.702028632E-2,-9.985139966E-2,2.136754990E-1
2.077523911E0,4.282630980E-2,-7.366901636E-2,1.395034790E-1
2.093484604E0,2.485384047E-2,-3.764724731E-2,-4.168510437E-3
2.109445297E0,1.452514529E-2,1.445358992E-2,-9.752559662E-2
2.125405991E0,2.245101333E-2,3.414644301E-2,4.173603058E-1
2.141427719E0,-3.309918940E-2,7.789789140E-2,9.437274933E-2
2.157388413E0,5.755649507E-2,-4.518392682E-2,2.214040756E-1
2.173349106E0,8.102919161E-2,-3.276783228E-2,1.185255051E-1
2.189309799E0,6.156374514E-2,-1.058482230E-1,-3.816499710E-1
2.205270493E0,7.241502404E-3,-6.780508161E-2,5.188884735E-1
2.221292221E0,-1.738417149E-2,-4.360279441E-2,2.509546280E-1
2.237252915E0,2.217723429E-2,-3.960222006E-3,1.217775345E-1
2.253213608E0,3.706963360E-2,3.994807601E-2,-8.885002136E-2
2.269174301E0,5.095037818E-2,3.918963671E-2,-1.389884949E-1
2.285134995E0,-3.722131252E-3,1.110708714E-2,-1.423931122E-2
2.301126206E0,-5.273786187E-2,-3.204724193E-2,8.182716370E-2
2.317086899E0,-5.119243264E-2,-8.134591579E-2,1.203880310E-1
2.333078110E0,-1.681511104E-2,-1.140085459E-1,1.157846451E-1
2.349069321E0,1.645119488E-2,-1.255535483E-1,2.012157440E-2
2.365030014E0,5.187547207E-2,-9.673443437E-2,-4.442214966E-2
2.381051743E0,4.058998823E-2,-7.106539607E-2,1.078224182E-2
2.397012436E0,8.442476392E-3,-9.900629520E-4,4.687023163E-2
2.413003647E0,-2.360859513E-2,1.696461439E-2,3.988552094E-2
2.428994858E0,-5.755394697E-3,3.336378932E-2,8.082675934E-2
2.444955551E0,2.562581003E-2,2.213263512E-2,5.958271027E-2
2.460885727E0,1.090358198E-2,-3.834009171E-3,-5.493545532E-2
2.476846420E0,-6.599068642E-3,-3.160259128E-2,-1.046686172E-1
2.492837631E0,-1.434823871E-2,-4.488578439E-2,7.316970825E-2
2.508798325E0,-1.258492470E-3,-4.742503166E-2,1.982746124E-1
2.524820053E0,3.976899385E-2,-6.604415178E-2,1.340389252E-1
2.540750229E0,7.283748686E-2,-6.316453218E-2,-5.239200592E-2
2.556710922E0,5.495485663E-2,-6.250989437E-2,-1.334047318E-1
2.572671616E0,-4.602497816E-2,-5.651819706E-2,-1.376247406E-1
2.588632309E0,-6.524106115E-2,-4.657369852E-2,2.029600143E-1
2.604593002E0,-2.968285978E-2,-2.846857905E-2,5.169906616E-1
2.620614731E0,4.841057956E-2,-2.062648535E-2,1.937026978E-1
2.636575424E0,4.668992758E-2,-3.034788370E-2,-2.662000656E-1
2.652536118E0,5.839064717E-3,-4.836690426E-2,-1.631898880E-1
2.668527329E0,-9.042149782E-2,-2.991059422E-2,-8.611679077E-2
2.684488022E0,-5.348517001E-2,2.609670162E-3,-2.122135162E-1
2.700509750E0,6.634622812E-2,8.097469807E-3,3.227109909E-1
2.716439926E0,1.003336459E-1,-3.280067444E-2,3.139543533E-1
2.732400620E0,2.366280556E-2,-7.024043798E-2,-2.264518738E-1
2.748391831E0,-2.455924451E-2,-5.285274982E-2,-2.142095566E-1
2.764352524E0,-3.196239471E-2,6.073355675E-3,2.748632431E-1
2.780374252E0,-1.932246983E-2,2.736192942E-2,5.076007843E-1
2.796334946E0,-8.453816175E-3,1.405912638E-2,3.712158203E-1
2.812295639E0,-9.675249457E-3,-1.526194811E-2,-7.220840454E-2
2.828256333E0,1.178692281E-2,-1.748746634E-2,-2.904920578E-1
2.844217026E0,1.402537525E-2,-5.098998547E-2,-2.162675858E-1
2.860238754E0,-2.038002014E-3,-6.019622087E-2,4.503536224E-2
2.876199448E0,8.469104767E-3,-8.590614796E-2,2.776203156E-1
2.892160141E0,-2.322125435E-2,-1.164772511E-1,2.225980759E-1
2.908151352E0,-1.272369921E-2,-1.189548969E-1,1.413726807E-2
2.924112045E0,-2.328719199E-2,-6.279313564E-2,-1.056756973E-1
2.940133774E0,-8.910089731E-3,9.306132793E-3,-3.369235992E-2
2.956094467E0,9.865462780E-3,3.602945805E-2,1.030941010E-1
2.972055161E0,-9.863734245E-3,6.520068645E-2,8.661460876E-2
2.988046372E0,-5.662232637E-3,2.612453699E-2,-1.133728027E-2
3.004007065E0,-2.610562742E-2,-5.599492788E-2,-2.912302017E-1
3.020028793E0,4.924805462E-2,-8.358716965E-2,-7.301330566E-2
3.035989487E0,3.445544839E-2,-1.106055975E-1,4.850549698E-1
3.051950180E0,1.521174610E-2,-9.614169598E-2,5.109109879E-1
3.067941391E0,2.139116824E-2,-4.283797741E-2,1.987028122E-1
3.083902084E0,1.473043859E-2,2.840489149E-2,-1.996831894E-1
3.099923813E0,-3.010524809E-2,9.154388309E-2,-3.198175430E-1
3.115884506E0,-5.196556449E-2,7.312291861E-2,-8.319911957E-1
3.131845200E0,-1.634155214E-2,6.855171919E-2,5.212631226E-1
3.147805893E0,-5.215722322E-2,-3.093326092E-2,-3.496427536E-1
3.163797104E0,1.369932294E-2,-1.274943352E-1,4.360170364E-1
3.179727280E0,-2.910235524E-2,-1.307663918E-1,-1.408996582E-1
3.195687973E0,5.262285471E-3,-1.921797991E-1,-1.912870407E-1
3.211679184E0,-2.281740308E-2,-1.044315696E-1,-4.594993591E-1
3.227639877E0,2.019174397E-2,-2.492910624E-2,5.049705505E-2
3.243631088E0,-1.249539852E-2,3.219008446E-2,2.131662369E-1
3.259591782E0,-2.697205544E-2,6.013673544E-2,2.032585144E-1
3.275552475E0,-3.486213088E-2,4.809522629E-2,3.520584106E-2
3.291543686E0,-7.117226720E-3,3.927975893E-2,-1.901111603E-1
3.307565415E0,1.354111731E-2,2.749133110E-2,-2.330408096E-1
3.323556625E0,-8.125588298E-3,5.272805691E-3,-7.414817810E-3
3.339517319E0,-4.306145012E-2,-6.171882153E-3,2.444639206E-1
3.355539047E0,-4.010111094E-2,-1.251327991E-2,3.354845047E-1
3.371469223E0,-2.201025188E-2,-6.960523129E-2,2.511129379E-1
3.387490952E0,2.001242340E-2,-7.506364584E-2,7.542991638E-2
3.403421127E0,2.513243258E-2,-5.410194397E-2,-1.313314438E-1
3.419320786E0,-1.104459167E-3,-1.593452692E-2,-2.395725250E-1
3.435281479E0,-2.359183133E-2,3.197062016E-2,-1.678161621E-1
3.451242172E0,-2.438560128E-2,4.839617014E-2,1.675014496E-1
3.467202866E0,-2.307163179E-2,3.610962629E-2,4.619455338E-1
3.483224594E0,-2.311475575E-2,-3.093886375E-2,2.220010757E-1
3.499154770E0,-9.949520230E-3,-5.378121138E-2,-1.737308502E-1
3.515115463E0,-4.697926342E-2,-6.205588579E-2,-1.382312775E-1
3.531106674E0,-6.036968529E-2,-2.427434921E-2,-2.028770447E-1
3.547067368E0,1.417076588E-2,5.199632049E-2,-2.240715027E-1
3.563028061E0,9.347188473E-2,6.338188052E-2,4.898729324E-1
3.579049790E0,1.055247039E-1,-5.187630653E-3,4.970636368E-1
3.595010483E0,9.642675519E-3,-7.364404202E-2,-1.835012436E-1
3.610971176E0,-4.589785635E-2,-6.753581762E-2,-3.492879868E-1
3.626931870E0,-9.079092741E-2,-2.809259295E-2,6.713485718E-2
3.642892563E0,-7.149796933E-2,5.002173781E-2,4.095783234E-1
3.658914291E0,-2.769786119E-2,7.376018167E-2,3.998270035E-1
3.674874985E0,2.251745760E-2,6.117740273E-2,-7.767677307E-3
3.690835678E0,9.309425950E-3,3.071415424E-2,-2.718172073E-1
3.706826889E0,-3.354267776E-2,-3.499493003E-2,-1.860227585E-1
3.722787583E0,-7.379132509E-2,-8.058461547E-2,4.134750366E-2
3.738809311E0,-3.442579508E-2,-7.888266444E-2,2.161188126E-1
3.754770004E0,-5.340710282E-3,-9.598034620E-2,1.130332947E-1
3.770700180E0,1.199775934E-2,-7.407256961E-2,1.704978943E-2
3.786691391E0,-9.769484401E-3,-1.240143180E-2,4.793357849E-2
3.802652084E0,-4.123494029E-2,3.283119202E-2,5.260848999E-2
3.818673813E0,-4.182210565E-2,7.230597734E-2,4.984951019E-2
3.834634506E0,-5.938529968E-2,8.682724833E-2,1.429882050E-1
3.850595200E0,-1.701791584E-2,5.138817430E-2,8.691787720E-3
3.866586411E0,3.086543083E-2,-6.067752838E-4,-2.164840698E-1
3.882547104E0,4.507039487E-2,-3.039196134E-2,-7.031822205E-2
3.898538315E0,2.663578093E-2,-3.598442674E-2,9.754180908E-2
3.914468491E0,-3.674440086E-2,6.450772285E-3,2.509756088E-1
3.930459702E0,-5.766133964E-2,3.568750620E-2,2.820501328E-1
3.946420395E0,1.731410623E-2,3.759157658E-2,1.524572372E-1
3.962442124E0,3.733035922E-2,3.968092799E-2,-6.820678711E-2
3.978372299E0,1.467341185E-2,3.834158182E-2,-1.378755569E-1
3.994394028E0,-4.057471454E-2,-7.455080748E-3,-2.775096893E-2
4.010324204E0,-8.547055721E-2,-3.218367696E-2,6.099128723E-2
4.026345932E0,-7.271215320E-2,-3.535386920E-2,1.281852722E-1
4.042337143E0,-3.595103323E-2,-5.776476860E-2,9.950256348E-2
4.058267319E0,7.296830416E-3,-3.694206476E-2,1.327800751E-2
4.074258530E0,1.791787148E-2,-2.637064457E-2,-2.745723724E-2
4.090249741E0,3.136886656E-2,-1.756921411E-2,5.393028259E-2
4.106240952E0,-3.120353818E-2,-1.128926873E-2,1.305122375E-1
4.122201645E0,-2.373984456E-2,-4.397189617E-2,1.112871170E-1
4.138223374E0,-3.521642089E-2,8.194369078E-2,3.985395432E-1
4.154184067E0,-2.783426642E-2,1.542297006E-2,-4.178647995E-1
4.170175278E0,1.491110027E-2,6.513577700E-2,3.962488174E-1
4.186166489E0,-1.164998114E-2,2.540874481E-2,-1.735258102E-1
4.202127182E0,2.486692369E-2,-3.611278534E-2,4.560661316E-1
4.218148911E0,-3.431491554E-2,-5.732417107E-3,4.651260376E-2
4.234109604E0,-2.037504315E-2,-2.209809422E-2,-9.003353119E-2
4.250100815E0,-9.412854910E-3,7.716029882E-3,-7.799720764E-2
4.266122543E0,-9.127855301E-4,2.316296101E-2,8.018875122E-2
4.282083237E0,1.033961773E-3,8.727222681E-3,1.449394226E-1
4.298013413E0,-3.751403093E-2,-1.159971952E-2,9.461688995E-2
4.313974106E0,-4.934741557E-2,-1.681607962E-2,-8.456230164E-3
4.329965317E0,-4.222191870E-2,-3.572675586E-2,-1.572895050E-2
4.345956528E0,-2.348543704E-2,-1.274865866E-2,1.039495468E-1
4.361947739E0,-2.776925266E-2,-2.118805051E-2,1.613473892E-1
4.377908432E0,-1.852741838E-2,-1.240372658E-3,3.222465515E-3
4.393838608E0,-3.706015646E-2,2.764815092E-2,-1.978969574E-1
4.409799301E0,-1.790341735E-2,1.576545835E-2,-2.479219437E-1
4.425759995E0,-1.526568830E-2,4.221025109E-2,2.307891846E-2
4.441781723E0,-1.910254359E-3,1.454263926E-2,5.286350250E-1
4.457711899E0,-1.480868459E-2,-4.123061895E-3,4.949455261E-1
4.473703110E0,-4.587827623E-2,-2.736702561E-2,-3.715324402E-2
4.489663803E0,-2.557364106E-2,-2.439898252E-2,-2.770709991E-1
4.505624497E0,-5.837583542E-2,-3.187358379E-4,-3.656167984E-1
4.521646225E0,-2.898792922E-2,2.186897397E-2,-3.411140442E-1
4.537576401E0,5.775259435E-2,6.576436758E-2,4.617967606E-1
4.553537094E0,1.104319990E-1,-1.732873917E-2,6.203260422E-1
4.569528305E0,6.669583917E-2,-7.790330052E-2,-1.195602417E-1
4.585550034E0,-3.619895875E-2,-7.881692052E-2,-5.004386902E-1
4.601541245E0,-1.260630339E-1,-8.340299129E-3,-9.083938599E-2
4.617501938E0,-1.232603788E-1,6.753993034E-2,5.728006363E-1
4.633493149E0,-5.297870934E-2,7.110202312E-2,7.140836716E-1
4.649453842E0,4.227399826E-3,6.942972541E-2,1.053419113E-1
4.665475571E0,5.151879787E-2,3.891080618E-2,-5.513620377E-1
4.681436264E0,2.447387576E-2,1.685452461E-2,-6.471872330E-1
4.697427475E0,-4.964296520E-2,-6.513416767E-3,-1.389122009E-1
4.713388168E0,-6.617110968E-2,-3.450646996E-2,4.534120560E-1
4.729379379E0,-4.909501970E-2,-8.204481006E-2,5.903444290E-1
4.745370590E0,-1.861990988E-2,-1.013728380E-1,2.262678146E-1
4.761331284E0,-2.224244177E-2,-8.450677991E-2,-1.715278625E-1
4.777353012E0,-3.608293831E-2,-1.814034581E-2,-3.319816589E-1
4.793313706E0,-2.093121409E-2,8.531346917E-2,-1.089754105E-1
4.809274399E0,2.246916294E-3,1.134250164E-1,2.386980057E-1
4.825265610E0,-1.150950789E-3,7.889851928E-2,3.347406387E-1
4.841226303E0,-4.701645672E-2,9.685933590E-3,-4.357242584E-2
4.857248032E0,-1.304328442E-3,-5.896079540E-2,-2.375164032E-1
4.873208725E0,-2.433566749E-2,-6.535768509E-2,-4.572010040E-2
4.889138901E0,-5.619318783E-2,-2.705085278E-2,1.940765381E-1
4.905130112E0,1.248370111E-2,4.867491126E-2,2.900590897E-1
4.921090805E0,2.127769589E-2,7.612821460E-2,1.248083115E-1
4.937112534E0,-1.466885209E-3,6.574326754E-2,-5.968475342E-2
4.953073227E0,-5.007827282E-2,2.753567696E-2,-8.600044250E-2
4.969033920E0,-4.978315532E-2,-2.083814144E-2,-2.353858948E-2
4.985025131E0,-4.871152341E-2,-4.965740442E-2,3.905487061E-2
5.000985825E0,-3.300015628E-2,-3.970056772E-2,6.097221375E-2
5.017007553E0,-4.960715771E-3,-4.375374317E-2,1.330566406E-1
5.032968247E0,-6.243199110E-3,-6.148660183E-2,1.594467163E-1
5.048928940E0,-3.744180501E-2,-6.631660461E-2,3.242588043E-2
5.064920151E0,-2.755278349E-2,-3.994643688E-3,-1.376914978E-1
5.080972397E0,-1.362560689E-2,2.291798592E-2,-6.822109222E-2
5.096902573E0,-1.711809635E-2,6.151542068E-2,1.258735657E-1
5.112863266E0,-6.508614123E-2,5.506893992E-2,-7.336034775E-1
5.128854477E0,-3.228251636E-2,6.394922733E-3,3.794975281E-1
5.144815170E0,-5.677723885E-2,4.510846734E-2,-3.150863647E-1
5.160836899E0,7.626965642E-3,-3.533887863E-2,-3.869838715E-1
5.176767075E0,-8.467376232E-3,4.136249423E-2,1.829996109E-1
5.192758286E0,-1.634646952E-2,-2.132654190E-4,-2.692842484E-1
5.208718979E0,6.156712770E-4,7.092595100E-3,5.281152725E-1
5.224740708E0,-2.304469049E-2,-1.718449593E-2,8.995342255E-2
5.240701401E0,-3.239181638E-2,1.968145370E-4,3.239440918E-2
5.256662094E0,-1.707969606E-2,-2.923178673E-2,1.318359375E-2
5.272683823E0,-1.609578729E-3,-2.026247978E-2,-1.307868958E-2
5.288675034E0,1.327261329E-3,4.219412804E-4,-2.485084534E-2
5.304666245E0,-3.940451145E-2,2.968490124E-3,3.527164459E-2
5.320626938E0,-5.655226111E-2,-7.173597813E-3,1.264877319E-1
5.336587631E0,-4.587315023E-2,-7.930397987E-4,1.361303329E-1
5.352578842E0,-2.936689556E-2,-6.342589855E-3,9.155273438E-3
5.368570053E0,1.848177612E-2,7.466018200E-3,-9.621906281E-2
5.384561264E0,1.654823124E-2,1.645261049E-2,-1.176309586E-1
5.400521958E0,-1.096139848E-2,2.104425430E-2,1.029100418E-1
5.416543686E0,-4.865257442E-2,3.117626905E-2,4.286718369E-1
5.432504379E0,-8.717917651E-2,2.550631762E-2,2.607698441E-1
5.448465073E0,-4.457983375E-2,-5.310773849E-4,-2.688446045E-1
5.464425766E0,7.809355855E-3,-1.316010952E-3,-2.809801102E-1
5.480386459E0,-2.598573267E-2,-1.894176006E-3,-1.393156052E-1
5.496408188E0,-2.728670835E-2,-1.386243105E-2,-9.074783325E-2
5.512368881E0,3.197713196E-2,-1.622211933E-2,5.970277786E-1
5.528329575E0,5.874136090E-2,-7.480955124E-2,5.610885620E-1
5.544290268E0,1.341785491E-2,-6.803303957E-2,-2.484006882E-1
5.560311997E0,-3.681373596E-2,-4.031103849E-2,-5.268478394E-1
5.576272690E0,-7.464008778E-2,5.019038916E-2,-7.647228241E-2
5.592233383E0,-8.051207662E-2,1.094155014E-1,4.436798096E-1
5.608255112E0,-6.640581787E-2,1.174141169E-1,5.181350708E-1
5.624215805E0,-1.532776654E-2,5.557870865E-2,4.612445831E-2
5.640207016E0,-2.013266087E-3,3.306537867E-2,-3.733425140E-1
5.656198227E0,-5.619764328E-3,-2.937299013E-2,-3.637990952E-1
5.672128403E0,-1.379331946E-2,-6.173408031E-2,-8.972167969E-3
5.688089096E0,-3.862027824E-2,-7.839906216E-2,2.908697128E-1
5.704049790E0,-2.213110030E-2,-7.590830326E-2,3.365077972E-1
5.720080771E0,-3.892561793E-2,-7.134765387E-2,1.087722778E-1
5.736010947E0,-3.452156484E-2,-2.680981159E-2,-1.143417358E-1
5.752032675E0,-3.950154781E-2,2.284473181E-2,-1.001415253E-1
5.767962851E0,-4.004472494E-2,7.426926494E-2,2.655887604E-2
5.783984580E0,-3.362536430E-2,8.654358983E-2,1.630134583E-1
5.799975791E0,2.318078279E-2,6.644779444E-2,1.102542877E-1
5.815905966E0,1.890291274E-2,1.761615276E-3,7.159233093E-3
5.831897177E0,-1.375675201E-3,-9.168505669E-3,-1.413803101E-1
5.847827353E0,-2.658434212E-2,-4.001939297E-2,-2.633285522E-2
5.863849082E0,-5.409136415E-2,1.153463125E-2,1.558523178E-1
5.879840293E0,-5.626922846E-2,5.243903399E-2,2.468852997E-1
5.895800986E0,2.062577009E-2,4.300177097E-2,1.844196320E-1
5.911792197E0,2.681666613E-2,3.307831287E-2,4.995059967E-2
5.927752890E0,-1.089863479E-2,-6.422698498E-3,-6.530666351E-2
5.943744101E0,-4.543159902E-2,-2.176213264E-2,-1.611537933E-1
5.959704794E0,-4.482555389E-2,-2.851736546E-2,-7.229995728E-2
5.975696005E0,-4.955437779E-2,-1.383846998E-2,9.331035614E-2
5.991687216E0,-4.945965111E-2,-9.075343609E-3,2.372236252E-1
6.007678427E0,-3.464165330E-2,-2.261930704E-2,2.419157028E-1
6.023700156E0,-5.744680762E-3,-3.635001183E-2,-2.656936646E-3
6.039691367E0,5.762323737E-3,-1.063323021E-2,-1.633539200E-1
6.055652060E0,-7.241934538E-3,3.508639336E-2,-1.345901489E-1
6.071643271E0,-4.618185759E-2,3.770655394E-2,1.146926880E-1
6.087665000E0,-5.772566795E-2,6.835058331E-2,2.633609772E-1
6.103625693E0,-5.336868763E-2,6.335675716E-2,1.579666138E-1
6.119647421E0,-3.238914907E-2,2.289533615E-2,-4.934110641E-1
6.135608115E0,3.915144503E-2,-3.249990940E-2,2.679338455E-1
6.151568808E0,-4.155021906E-2,-3.371298313E-3,-3.878917694E-1
6.167560019E0,-4.275961220E-2,-7.171916962E-2,6.003952026E-2
6.183520712E0,-5.225583911E-2,2.734708786E-2,2.348661423E-1
6.199542441E0,-1.839460433E-2,-2.968764305E-2,1.687717438E-2
6.215472617E0,-1.103439927E-2,-3.424823284E-3,-8.621406555E-2
6.231463828E0,-1.618064940E-2,8.417844772E-3,-2.875328064E-2
6.247424521E0,-4.264850914E-2,5.487501621E-3,3.360271454E-2
6.263446250E0,-3.938759863E-2,2.915084362E-3,8.159160614E-2
6.279437461E0,-3.775256872E-2,2.169609070E-3,3.616237640E-2
6.295367636E0,-1.025895774E-2,-1.550555229E-3,6.014156342E-2
6.311389365E0,-3.073504567E-2,5.758762360E-3,1.128005981E-1
6.327380576E0,-5.912646651E-3,-1.147550344E-2,2.623558044E-3
6.343341269E0,-1.870708168E-2,-6.152749062E-3,-1.361942291E-1
6.359332480E0,-1.650483906E-2,-5.353689194E-4,-1.383590698E-1
6.375293173E0,-3.997600079E-2,4.295396805E-2,2.139186859E-1
6.391253867E0,-1.680389047E-2,2.387589216E-2,5.275793076E-1
6.407153525E0,-4.197794199E-2,1.201993227E-2,2.228736877E-1
6.423175253E0,-3.765283525E-2,-1.479327679E-3,-2.257022858E-1
6.439166464E0,-5.889685452E-2,-1.529598236E-2,-2.166137695E-1
6.455127158E0,-8.183572441E-2,1.069205999E-2,-1.709880829E-1
6.471118369E0,5.554258823E-4,3.839772940E-2,-1.345062256E-1
6.487048544E0,8.363042772E-2,4.329389334E-2,4.672021866E-1
6.503070273E0,1.092060804E-1,-8.893370628E-3,2.496881485E-1
6.519061484E0,4.768028855E-3,-7.242339849E-2,-3.464622498E-1
6.535022177E0,-1.250454485E-1,-6.234222651E-2,-2.553567886E-1
6.551013388E0,-1.279882640E-1,5.678713322E-3,2.597770691E-1
6.566943564E0,-6.870156527E-2,6.607681513E-2,6.047220230E-1
6.582934775E0,-1.472944021E-2,7.581490278E-2,4.821481705E-1
6.598834433E0,1.753866673E-2,6.052213907E-2,-6.468963623E-2
6.614856162E0,4.094779491E-2,4.687333107E-2,-4.916343689E-1
6.630816855E0,-2.779065073E-2,3.677546978E-2,-4.916772842E-1
6.646808066E0,-8.666941524E-2,1.318985224E-2,-1.174860001E-1
6.662799277E0,-6.494311988E-2,-2.109491825E-2,3.144025803E-1
6.678729453E0,-1.837204397E-2,-7.767689228E-2,5.016336441E-1
6.694751181E0,2.193313837E-2,-1.119176149E-1,3.385229111E-1
6.710681357E0,-3.760431707E-2,-9.991294146E-2,2.647018433E-2
6.726703086E0,-5.882811546E-2,-1.299178600E-2,-2.232751846E-1
6.742663779E0,-4.643091559E-2,7.165476680E-2,-1.877088547E-1
6.758685507E0,-2.874551713E-2,1.512279510E-1,8.284759521E-2
6.774585166E0,3.462262452E-2,1.315886080E-1,1.930589676E-1
6.790576377E0,2.899013460E-2,6.873664260E-2,5.891990662E-2
6.806506552E0,1.898327470E-2,-3.453886509E-2,-1.733732224E-1
6.822528281E0,-4.098622501E-2,-6.752389669E-2,4.226398468E-2
6.838519492E0,-8.091179281E-2,-6.685203314E-2,1.885061264E-1
6.854480185E0,-4.127834737E-2,2.330011129E-2,2.315788269E-1
6.870471396E0,3.419435024E-2,6.097170711E-2,1.379384995E-1
6.886432089E0,4.683592916E-2,6.044605374E-2,-1.087474823E-2
6.902423300E0,-1.575261354E-3,5.228486657E-2,-3.977012634E-2
6.918322959E0,-7.152539492E-2,1.451396942E-2,-1.848125458E-2
6.934344687E0,-1.017277092E-1,-1.697671413E-2,-8.817672729E-3
6.950305380E0,-8.052653819E-2,-3.402286768E-2,8.182525635E-3
6.966296591E0,-1.119954884E-2,-3.384011984E-2,7.787799835E-2
6.982226767E0,8.143126965E-3,-2.084463835E-2,1.426992416E-1
6.998217978E0,-1.050886512E-2,-2.337300777E-2,1.019802094E-1
7.014148154E0,-2.892224491E-2,-2.021914721E-2,-4.416847229E-2
7.030139365E0,-1.205278933E-2,1.025438309E-3,-6.573390961E-2
7.046100058E0,-2.999840677E-2,5.532178283E-2,6.366348267E-2
7.062121787E0,-4.560472071E-2,7.586929202E-2,1.834726334E-1
7.078112998E0,-2.590942383E-2,5.088636279E-2,1.235513687E-1
7.094043173E0,-1.966023445E-2,3.851240873E-2,6.057739258E-3
7.110064902E0,-7.229223847E-3,5.082130432E-3,-3.716850281E-2
7.125964560E0,-7.262364030E-3,-4.596066475E-2,-3.245124817E-1
7.141986289E0,-2.137778699E-2,2.363711596E-2,4.153003693E-1
7.157977500E0,-7.144080102E-2,-4.727840424E-3,-4.202613831E-1
7.173907675E0,-1.396255195E-2,2.038919926E-2,3.579149246E-1
7.189898886E0,-2.406106889E-2,1.821392775E-2,-4.104747772E-1
7.205859580E0,-7.690340281E-3,-1.481926441E-2,1.834468842E-1
7.221850791E0,-2.417062223E-2,2.394676208E-3,1.786766052E-1
7.237811484E0,-2.557447553E-2,-2.206856012E-2,1.378021240E-1
7.253802695E0,-2.710111439E-2,-2.893543243E-2,-6.117057800E-2
7.269793906E0,-4.414664209E-2,-2.098715305E-2,-1.211061478E-1
7.285754599E0,-2.326633036E-2,5.000948906E-3,7.294559479E-2
7.301745810E0,-1.795573533E-2,2.386331558E-2,2.382469177E-1
7.317645468E0,-1.821763813E-2,3.669887781E-2,1.064414978E-1
7.333667197E0,6.340950727E-3,2.455556393E-2,-1.259431839E-1
7.349658408E0,-3.852865100E-2,3.000819683E-2,-2.551593781E-1
7.365619101E0,-3.063212335E-2,2.489596605E-2,1.338577271E-2
7.381610312E0,-5.126254261E-2,2.995270491E-2,5.236520767E-1
7.397540488E0,-4.579097033E-2,2.783417702E-3,4.443769455E-1
7.413562216E0,-2.882689238E-2,-1.459008455E-2,-8.552932739E-2
7.429553427E0,-3.263181448E-2,-2.376633883E-2,-2.678556442E-1
7.445514121E0,-4.956208169E-2,1.158496737E-2,-3.661651611E-1
7.461505332E0,-2.072089911E-2,2.325850725E-2,-4.037523270E-1
7.477466025E0,3.285005689E-2,5.917754769E-2,4.161911011E-1
7.493457236E0,6.746748090E-2,-1.067787409E-2,5.773115158E-1
7.509448447E0,2.394974232E-3,-5.645495653E-2,-3.085613251E-2
7.525378623E0,-7.031534612E-2,-7.137906551E-2,-3.639755249E-1
7.541369834E0,-9.468752146E-2,-2.460521460E-2,-2.880764008E-2
7.557300009E0,-4.692135751E-2,5.792802572E-2,4.238929749E-1
7.573321738E0,-6.320489943E-2,9.213179350E-2,4.931888580E-1
7.589282431E0,-3.078606725E-2,1.101249754E-1,8.788299561E-2
7.605273642E0,-1.933142543E-3,9.251713753E-2,-3.557720184E-1
7.621264853E0,2.095496655E-2,6.032529473E-2,-4.756889343E-1
7.637164511E0,-4.782332480E-2,-9.597301483E-3,-1.759042740E-1
7.653186240E0,-6.928063929E-2,-6.970995665E-2,2.247276306E-1
7.669116416E0,-5.138613284E-2,-1.033230424E-1,4.742679596E-1
7.685077109E0,-4.200239480E-2,-1.296811700E-1,3.903417587E-1
7.701098837E0,-3.657735884E-2,-9.239363670E-2,9.047889709E-2
7.717120566E0,-3.944379091E-2,7.078647614E-4,-2.716093063E-1
7.733050742E0,-1.714035869E-3,8.072799444E-2,-3.507280350E-1
7.749041953E0,-2.973833680E-2,1.468433142E-1,-6.777000427E-2
7.765033164E0,2.256284654E-2,1.311371028E-1,1.842021942E-1
7.781024375E0,-2.610981464E-2,5.391234159E-2,2.875308990E-1
7.797015586E0,-2.235172689E-2,-5.104655027E-2,-1.175212860E-2
7.812945761E0,-1.094847918E-2,-8.711773157E-2,-4.052829742E-2
7.828967490E0,-4.693721235E-2,-6.499958038E-2,9.597396851E-2
7.844928183E0,-5.319890380E-2,1.748973131E-2,2.204313278E-1
7.860949912E0,3.171205521E-3,9.364950657E-2,2.081937790E-1
7.876941123E0,4.077304900E-2,9.269642830E-2,8.566474915E-2
7.892901816E0,7.733881474E-3,7.101187110E-2,-8.951282501E-2
7.908862509E0,-6.551715732E-2,2.825057507E-2,-1.566791534E-1
7.924823203E0,-8.189173043E-2,-2.092254162E-2,-7.031059265E-2
7.940814414E0,-7.978139818E-2,-4.608976841E-2,1.239442825E-1
7.956775107E0,-4.865038395E-2,-8.741778135E-2,1.959943771E-1
7.972766318E0,-5.058392882E-3,-7.804930210E-2,1.097822189E-1
7.988757529E0,-4.996985197E-3,-6.205302477E-2,-2.446651459E-2
8.004718222E0,-2.283003926E-2,-1.704007387E-2,-1.036062241E-1
8.020709433E0,-3.560200334E-2,2.521103621E-2,8.892059326E-3
8.036700644E0,-1.811714470E-2,5.379334092E-2,1.620988846E-1
8.052691855E0,-1.658605039E-2,7.415595651E-2,8.299541473E-2
8.068683066E0,2.321933210E-2,7.516172528E-2,-6.315612793E-2
8.084643759E0,-3.192763031E-2,3.764581680E-2,-1.133899689E-1
8.100604453E0,-4.987712204E-2,2.197331190E-2,4.136085510E-3
8.116595664E0,-8.734808117E-2,2.516233921E-2,-2.662048340E-1
8.132586875E0,-3.745698929E-2,-6.363672018E-2,1.630687714E-2
8.148578086E0,-9.331852198E-4,2.520841360E-2,2.722311020E-1
8.164538779E0,4.228250682E-2,-5.986571312E-2,-1.590499878E-1
8.180529990E0,2.466981113E-2,3.071606159E-3,3.028326035E-1
8.196460166E0,-6.035156548E-2,-8.442401886E-4,-3.436555862E-1
8.212481894E0,-5.441401899E-2,2.480632067E-2,5.856037140E-2
8.228442587E0,-5.707132816E-2,5.637824535E-3,1.350545883E-1
8.244433798E0,-3.523682058E-2,-5.036890507E-3,1.036930084E-2
8.260425009E0,-1.275107265E-3,-1.223075390E-2,-3.285884857E-2
8.276355185E0,1.150967181E-2,-1.013153791E-2,3.414630890E-2
8.292376914E0,-2.836841345E-2,-7.527291775E-3,6.765937805E-2
8.308337607E0,-5.489178002E-2,3.602921963E-3,5.320549011E-3
8.324328818E0,-3.421318531E-2,4.184752703E-3,-1.869583130E-2
8.340350546E0,-1.069934666E-2,1.868918538E-2,-2.114677429E-2
8.356280722E0,-8.330643177E-4,5.367878079E-2,2.133617401E-1
8.372302451E0,-2.384591103E-2,4.111021757E-2,4.117212296E-1
8.388232627E0,-1.582494378E-2,9.259551764E-3,1.332893372E-1
8.404223837E0,-4.279650748E-2,-3.032517433E-2,-2.888164520E-1
8.420123496E0,-4.359333217E-2,3.841280937E-3,-1.981210709E-1
8.436114707E0,-6.235262752E-2,3.502327204E-2,-2.123298645E-1
8.452075400E0,-2.667099237E-3,4.270315170E-2,-1.792716980E-2
8.468036093E0,5.163154006E-2,3.285917640E-2,5.427761078E-1
8.483996787E0,5.145698786E-2,-3.836062551E-2,3.488702774E-1
8.500018515E0,6.936505437E-3,-8.622214198E-2,-3.290557861E-1
8.516009726E0,-6.248106062E-2,-6.359460950E-2,-4.178686142E-1
8.532000937E0,-8.707800508E-2,2.516582608E-2,1.353311539E-1
8.547992148E0,-7.803480327E-2,6.996199489E-2,5.473394394E-1
8.563983359E0,-5.200289190E-2,8.271834254E-2,4.561185837E-1
8.579944052E0,6.855159998E-3,8.632203937E-2,7.709503174E-3
8.595965781E0,-3.959894180E-3,5.258268118E-2,-3.856143951E-1
8.611926474E0,-2.091455460E-2,3.744891286E-2,-4.479970932E-1
8.627887168E0,-3.484904766E-2,9.051084518E-3,-6.694602966E-2
8.643878378E0,-4.811045527E-2,-3.022316098E-2,3.286190033E-1
8.659900107E0,-2.607533336E-2,-5.903407931E-2,3.958597183E-1
8.675921836E0,-2.075074613E-2,-8.604934812E-2,1.156949997E-1
8.691882529E0,-3.430040181E-2,-5.762141943E-2,-1.194019318E-1
8.707843222E0,-4.670184851E-2,5.187243223E-3,-1.674642563E-1
8.723864951E0,-2.544452250E-2,7.685354352E-2,-9.447097778E-3
8.739856162E0,-1.588323712E-2,1.019480824E-1,2.180528641E-1
8.755847373E0,3.577390313E-2,9.142610431E-2,2.226629257E-1
8.771869101E0,-1.123766601E-2,3.535342216E-2,8.102893829E-2
8.787799277E0,-2.669332922E-2,-4.043745995E-2,-2.066793442E-1
8.803821005E0,-4.801069200E-2,-4.273468256E-2,-1.182966232E-1
8.819751181E0,-7.016795874E-2,-1.693147421E-2,1.593761444E-1
8.835742392E0,-3.499160707E-2,4.982230067E-2,2.670211792E-1
8.851672568E0,1.634177566E-2,7.399848104E-2,2.139978409E-1
8.867694296E0,3.977347910E-2,7.961341739E-2,3.658485413E-2
8.883685507E0,9.767487645E-3,5.452957749E-2,-1.364631653E-1
8.899646201E0,-2.154935896E-2,1.918035746E-2,-1.055812836E-1
8.915667929E0,-8.146032691E-2,-4.315170646E-2,3.079795837E-2
8.931598105E0,-4.849278927E-2,-3.787708282E-2,1.312971115E-1
8.947589316E0,-3.212380409E-2,-4.725462198E-2,1.622629166E-1
8.963550009E0,-2.239772677E-2,-5.559420586E-2,5.182743073E-2
8.979571738E0,2.329321206E-2,-3.655171394E-2,-5.864810944E-2
8.995562949E0,-2.586016059E-2,-2.107614279E-2,-2.059936523E-2
9.011493125E0,-3.567555547E-2,9.817451239E-3,4.625415802E-2
9.027484336E0,-3.988683224E-2,6.217372417E-2,9.633350372E-2
9.043414511E0,-3.096497059E-2,6.515860558E-2,1.247949600E-1
9.059436240E0,7.183626294E-3,7.862198353E-2,8.856487274E-2
9.075427451E0,-2.624168992E-2,6.289324164E-2,-2.189254761E-2
9.091418662E0,-3.888300061E-2,4.171733558E-2,-3.889846802E-2
9.107409873E0,-5.463531613E-2,1.999369264E-2,-3.153800964E-3
9.123370566E0,-7.036878169E-2,2.512975037E-2,-3.815889359E-1
9.139361777E0,1.440078020E-2,-9.524852037E-3,5.735149384E-1
9.155322470E0,-2.250955999E-2,4.700675607E-2,2.979087830E-2
9.171344199E0,5.548030138E-3,-5.339896679E-2,5.586051941E-2
9.187335410E0,-9.434416890E-3,1.200385392E-2,2.734918594E-1
9.203296103E0,-5.408453941E-2,-9.972155094E-3,-3.300256729E-1
9.219287314E0,-7.224367559E-2,3.386168182E-2,9.838676453E-2
9.235217490E0,-3.208087385E-2,1.462312043E-2,1.436986923E-1
9.251239218E0,-2.170464396E-2,9.564965963E-3,1.817569733E-1
9.267169394E0,-1.249668002E-2,2.107150853E-2,6.892395020E-2
9.283191123E0,-1.737742126E-2,2.374882996E-2,-1.516227722E-1
9.299151816E0,-2.255298197E-2,2.633798867E-2,-2.594890594E-1
9.315173544E0,-3.509750962E-2,3.012904525E-2,-1.517257690E-1
9.331103720E0,-3.321559727E-2,5.743120611E-2,2.266111374E-1
9.347094931E0,-1.595357060E-2,6.280915439E-2,5.258455276E-1
9.363055625E0,-2.919819951E-2,3.309654444E-2,2.575120926E-1
9.379046836E0,-4.095143080E-2,6.481669843E-3,-2.718324661E-1
9.395038046E0,-2.459962666E-2,2.225473896E-2,-2.839174271E-1
9.410937705E0,-4.020971060E-2,6.180495024E-3,-1.761331558E-1
9.426928916E0,-1.143023372E-2,2.587522939E-2,-3.481101990E-2
9.442889609E0,4.053667188E-2,5.081500113E-2,4.656028748E-1
9.458911337E0,7.396060228E-2,1.187128201E-2,4.226331711E-1
9.474902548E0,3.793323040E-2,-2.611444145E-2,-2.310085297E-1
9.490832724E0,-1.906552911E-2,-1.725364849E-2,-4.968900681E-1
9.506823935E0,-8.196628094E-2,2.551945671E-2,-1.234512329E-1
9.522754111E0,-9.707839787E-2,6.879738718E-2,3.195590973E-1
9.538745322E0,-5.499577522E-2,7.347308844E-2,5.255460739E-1
9.554706015E0,-2.857612073E-2,7.911533117E-2,3.268146515E-1
9.570727744E0,1.453083754E-2,4.879080877E-2,-6.586647034E-2
9.586718955E0,2.289900184E-2,2.009457722E-2,-3.196048737E-1
9.602679648E0,-5.600565672E-2,-1.360770315E-3,-2.236957550E-1
9.618670859E0,-4.355563223E-2,-2.413915098E-2,6.138801575E-2
9.634570517E0,-2.802589536E-2,-3.042395413E-2,2.578773499E-1
9.650500693E0,-1.338022947E-2,-2.987874299E-2,2.484798431E-1
9.666491904E0,-2.845644951E-2,-1.759094745E-2,7.631206512E-2
9.682391562E0,-6.679177284E-2,1.535549760E-2,-1.149797440E-1
9.698413291E0,-5.265574157E-2,5.952751637E-2,-1.578474045E-1
9.714404502E0,-3.674033284E-2,1.091124266E-1,-2.358913422E-2
9.730334677E0,-7.394850254E-3,1.244960576E-1,1.394062042E-1
9.746264853E0,-2.328059077E-2,8.194628358E-2,2.713308334E-1
9.762225546E0,-5.219727755E-3,3.352876008E-2,-4.206752777E-2
9.778216757E0,7.957518101E-3,7.647588849E-3,-2.596921921E-1
9.794116416E0,-2.815026045E-2,-3.285527229E-3,-1.516971588E-1
9.810046591E0,-4.981119931E-2,1.444447041E-2,1.239156723E-1
9.826037802E0,-2.402976155E-2,5.120101571E-2,2.990484238E-1
9.841937461E0,-2.106338739E-3,6.202338636E-2,2.492761612E-1
9.857959189E0,1.620545983E-2,7.549816370E-2,6.554126740E-2
9.873950400E0,-3.058910370E-4,8.483961225E-2,-9.665679932E-2
9.889880576E0,-4.101717472E-2,4.860284925E-2,-8.896446228E-2
9.905841269E0,-4.687353969E-2,4.108840227E-2,-6.722545624E-2
9.921801962E0,-5.032819510E-2,2.134144306E-2,-2.154350281E-3
9.937793173E0,-3.270575404E-2,1.329764724E-2,5.314350128E-2
9.953753867E0,-1.745197177E-2,3.499597311E-3,1.014795303E-1
9.969745078E0,-1.474678516E-3,-1.936197281E-3,8.253669739E-2
9.985736289E0,-1.296591759E-2,2.809852362E-3,3.034496307E-2
1.000166646E1,-2.220207453E-2,2.887484431E-2,1.170158386E-2
1.001765768E1,-2.673608065E-2,6.036615372E-2,2.178287506E-2
1.003361837E1,-2.940076590E-2,7.319667935E-2,1.032638550E-2
1.004960958E1,-4.380923510E-2,1.034497321E-1,-5.936622620E-3
1.006560079E1,-3.631192446E-2,8.365973830E-2,4.243183136E-2
1.008156148E1,-1.203325391E-2,7.516980171E-2,1.052055359E-1
1.009755270E1,-6.713867188E-3,4.214322567E-2,6.745529175E-2
1.011348287E1,1.348939538E-2,1.284895241E-1,4.271526337E-1
1.012950460E1,-1.680415869E-2,-2.895343304E-2,-2.426538467E-1
1.014549581E1,-6.918579340E-3,3.491184115E-2,5.168609619E-1
1.016145650E1,-2.844366431E-2,3.171110153E-2,-4.139080048E-1
1.017747823E1,-1.598420739E-2,4.125654697E-3,2.426948547E-1
1.019337789E1,-1.287636161E-2,6.709364057E-2,-1.469421387E-1
1.020939962E1,-2.419054508E-3,7.776141167E-3,2.678899765E-1
1.022539083E1,-1.341035962E-2,2.493488789E-2,6.024742126E-2
1.024135152E1,-2.365019917E-2,2.313053608E-2,-2.531433105E-2
1.025725118E1,-1.965746284E-2,3.259366751E-2,-1.277093887E-1
1.027324239E1,-2.924641967E-2,4.046905041E-2,-1.272659302E-1
1.028920309E1,-2.202701569E-2,4.628288746E-2,2.865028381E-2
1.030516378E1,-2.017614245E-2,4.654490948E-2,3.163137436E-1
1.032115499E1,-1.623651385E-2,5.234748125E-2,3.050823212E-1
1.033714620E1,-3.659757972E-2,3.803944588E-2,-5.302810669E-2
1.035316793E1,-7.491749525E-2,4.139119387E-2,-2.507972717E-1
1.036909810E1,-3.812122345E-2,5.587375164E-2,-1.591815948E-1
1.038508932E1,-6.227636337E-2,1.809167862E-2,-2.165193558E-1
1.040105001E1,4.117748141E-2,8.310258389E-2,2.310943604E-1
1.041707174E1,1.042600572E-1,8.136808872E-2,5.307121277E-1
1.043306295E1,8.640223742E-2,8.134603500E-3,7.438850403E-2
1.044899313E1,1.873436570E-2,-4.176002741E-2,-4.106502533E-1
1.046501485E1,-5.462482572E-2,-5.627393723E-3,-4.052820206E-1
1.048097555E1,-1.015697420E-1,6.257468462E-2,-4.838657379E-2
1.049699728E1,-8.871781826E-2,1.042677164E-1,4.185953140E-1
1.051298849E1,-4.642426968E-2,1.016278267E-1,5.771617889E-1
1.052891866E1,9.247362614E-3,8.368372917E-2,3.031005859E-1
1.054490987E1,4.497808218E-2,5.241596699E-2,-8.291912079E-2
1.056084005E1,1.572293043E-2,1.254779100E-2,-3.230552673E-1
1.057686178E1,-1.721942425E-2,1.606029272E-2,-2.765169144E-1
1.059285299E1,-5.578947067E-2,1.510900259E-2,-6.068325043E-2
1.060881368E1,-3.202313185E-2,2.172529697E-2,1.381816864E-1
1.062480489E1,-5.114668608E-2,-5.885243416E-3,1.433410645E-1
1.064073507E1,-5.608350039E-2,2.200472355E-2,9.137821198E-2
1.065672628E1,-3.146091104E-2,3.555727005E-2,4.675292969E-2
1.067268697E1,-1.814273000E-2,6.120240688E-2,3.322696686E-2
1.068867818E1,-1.408937573E-2,6.832188368E-2,5.284309387E-3
1.070466939E1,1.806649566E-2,9.779238701E-2,5.632114410E-2
1.072063009E1,-2.299600840E-2,6.293100119E-2,-3.635215759E-2
1.073662130E1,-1.329767704E-2,4.147464037E-2,-9.084892273E-2
1.075255147E1,-2.090406418E-2,5.431413651E-2,-7.135677338E-2
1.076857320E1,-2.072420716E-2,6.937140226E-2,6.017684937E-4
1.078450338E1,-8.282810450E-3,6.055450439E-2,1.012735367E-1
1.080049459E1,5.903035402E-3,5.201900005E-2,1.782045364E-1
1.081639425E1,1.245075464E-2,6.953346729E-2,9.017848969E-2
1.083241598E1,-1.066681743E-2,4.014700651E-2,1.189136505E-2
1.084843770E1,-3.169444203E-2,7.597768307E-2,-5.924129486E-2
1.086436788E1,-1.706737280E-2,5.915057659E-2,-5.634403229E-2
1.088038961E1,-3.099048138E-2,2.529191971E-2,1.819324493E-2
1.089631979E1,-1.318916678E-2,1.853370667E-2,4.715061188E-2
1.091234151E1,1.691928506E-2,1.820331812E-2,2.348518372E-2
1.092830221E1,-1.305091381E-2,2.974033356E-3,6.212711334E-2
1.094426290E1,-5.094721913E-2,2.752453089E-2,6.496906281E-2
1.096025411E1,-4.466068745E-2,5.417644978E-2,3.427219391E-2
1.097621480E1,-6.437629461E-3,6.439405680E-2,2.266883850E-2
1.099223653E1,7.810980082E-3,7.053816319E-2,8.611679077E-3
1.100819723E1,-1.894873381E-2,7.267433405E-2,-1.268482208E-2
1.102418844E1,-3.669482470E-2,6.375437975E-2,1.384830475E-2
1.104014913E1,-5.694097281E-2,5.230176449E-2,7.391834259E-2
1.105617086E1,-2.853465080E-2,3.244096041E-2,5.026626587E-2
1.107216207E1,-3.067022562E-2,1.184624434E-2,2.712249756E-3
1.108809225E1,2.228650451E-2,2.522993088E-2,-6.573677063E-3
1.110408346E1,1.277628541E-2,1.515245438E-2,4.875087738E-2
1.112001363E1,-1.812765002E-2,9.110766649E-2,2.094287872E-1
1.113603536E1,-2.001294494E-2,-1.825988293E-2,2.302360535E-2
1.115202657E1,-7.459363341E-2,9.890300035E-2,6.655025482E-2
1.116795675E1,-1.153561473E-2,5.600333214E-3,-5.220260620E-1
1.118397848E1,8.148491383E-3,6.048172712E-2,2.491207123E-1
1.119990865E1,-2.957558632E-2,5.225783587E-2,-4.190101624E-1
1.121593038E1,-1.033416390E-2,3.896278143E-2,1.073913574E-1
1.123192159E1,-2.301889658E-2,3.823828697E-2,2.509212494E-1
1.124785177E1,-4.712343216E-2,2.923417091E-2,1.004800797E-1
1.126384298E1,-4.858028889E-2,2.958554029E-2,-1.072244644E-1
1.127980367E1,-9.355098009E-3,3.150147200E-2,-8.762168884E-2
1.129582540E1,-1.303017139E-2,1.174682379E-2,-1.546506882E-1
1.131181661E1,9.719729424E-4,4.001259804E-2,2.681922913E-2
1.132774679E1,6.068190932E-2,8.090680838E-2,3.544731140E-1
1.134373800E1,7.718655467E-2,5.848830938E-2,1.703128815E-1
1.135969869E1,1.485288143E-3,5.066156387E-3,-2.434101105E-1
1.137572042E1,-7.609504461E-2,-2.277451754E-2,-2.983970642E-1
1.139171163E1,-8.734494448E-2,2.119386196E-2,-9.534358978E-2
1.140764181E1,-5.576419830E-2,4.756450653E-2,1.461086273E-1
1.142363302E1,-4.201295972E-2,7.231420279E-2,3.893842697E-1
1.143953268E1,8.296191692E-3,5.871498585E-2,3.488302231E-1
1.145555440E1,2.127051353E-2,6.106024981E-2,5.779361725E-2
1.147154562E1,9.378999472E-3,2.972167730E-2,-1.659107208E-1
1.148747579E1,-3.467300534E-2,2.299034595E-2,-2.176828384E-1
1.150346700E1,-5.108726025E-2,4.200518131E-3,-1.553783417E-1
1.151942770E1,-5.435207486E-2,9.049713612E-3,5.272483826E-2
1.153541891E1,-4.089665413E-2,2.281254530E-2,1.744756699E-1
1.155134908E1,-2.658799291E-2,1.916879416E-2,1.576108932E-1
1.156737081E1,-2.050235868E-2,2.957314253E-2,9.784603119E-2
1.158336202E1,-1.091921329E-2,6.146669388E-2,2.846050262E-2
1.159932271E1,-1.683148742E-2,9.055167437E-2,-2.919292450E-2
1.161531392E1,-1.098453999E-3,8.213657141E-2,-1.015157700E-1
1.163127462E1,-9.920150042E-3,6.711393595E-2,-4.719352722E-2
1.164726583E1,-1.440545917E-2,1.816892624E-2,3.091239929E-2
1.166325704E1,-1.733124256E-2,7.629811764E-3,8.271598816E-2
1.167921773E1,-2.117142081E-2,1.305627823E-2,4.834651947E-2
1.169520895E1,-1.685243845E-2,2.553290129E-2,3.071403503E-2
1.171113912E1,4.827857018E-3,6.459569931E-2,-1.320838928E-3
1.172716085E1,3.074052930E-2,9.273940325E-2,-4.687309265E-3
1.174315206E1,2.644607425E-2,9.893834591E-2,1.339054108E-2
1.175911275E1,1.116788387E-2,6.372648478E-2,1.942253113E-2
1.177507345E1,-3.104737401E-2,1.005101204E-2,1.586055756E-2
1.179106466E1,-3.416383266E-2,-1.638895273E-2,4.333686829E-2
1.180705587E1,-2.914416790E-2,-4.062306881E-2,3.011035919E-2
1.182304708E1,-1.874890924E-2,-3.819501400E-2,-2.145290375E-2
1.183903829E1,-2.002826333E-2,-3.737789392E-2,1.312637329E-2
1.185499898E1,-1.182618737E-2,-8.198022842E-4,6.929492950E-2
1.187092916E1,-2.747526765E-2,1.325488091E-3,5.133152008E-2
1.188695089E1,-1.877215505E-2,3.873294592E-2,1.187324524E-2
1.190288106E1,-1.256582141E-2,3.026026487E-2,2.035236359E-2
1.191887228E1,-2.585801482E-2,2.941471338E-2,4.798603058E-2
1.193480245E1,-4.855814576E-2,3.093981743E-2,5.408668518E-2
1.195079366E1,-1.775485277E-2,3.917276859E-3,4.101181030E-2
1.196675436E1,-3.257727623E-2,1.263678074E-3,-2.713298798E-2
1.198268453E1,-4.539787769E-2,-1.926243305E-3,-4.508399963E-2
1.199864522E1,-3.033056855E-2,8.322894573E-3,3.748607635E-2
1.201466695E1,-2.529451251E-2,-3.105223179E-3,1.464481354E-1
1.203065816E1,9.342700243E-3,-1.491093636E-2,1.693868637E-1
1.204658834E1,-1.944485307E-2,-1.970201731E-2,9.668827057E-2
1.206261007E1,2.671360970E-3,-1.300913095E-2,-7.175350189E-2
1.207854024E1,9.709358215E-3,-3.719323874E-2,-1.924209595E-1
1.209456197E1,-2.310690284E-2,-2.753478289E-2,-1.576690674E-1
1.211058370E1,-3.026384115E-2,-1.096200049E-1,-1.613750458E-1
1.212651388E1,-4.295462370E-2,-4.127740860E-3,-2.487192154E-1
1.214250509E1,-8.561521769E-3,-3.881284595E-2,4.448108673E-1
1.215846578E1,-6.290233135E-2,3.249648213E-2,-1.613759995E-1
1.217448751E1,-3.164529800E-2,-5.438759923E-2,9.430980682E-2
1.219047872E1,-3.420522809E-2,1.874881983E-2,1.295480728E-1
1.220640890E1,-2.954903245E-2,-8.304101229E-2,-5.346050262E-1
1.222240011E1,4.533115029E-2,1.160281897E-2,1.729488373E-2
1.223833028E1,5.422118306E-2,-1.784607768E-2,4.046421051E-1
1.225435201E1,3.125014901E-2,-3.950294852E-2,1.618881226E-1
1.227034322E1,-1.362362504E-2,-5.671891570E-2,-1.642208099E-1
1.228627340E1,-4.136770964E-2,-2.384695411E-2,-1.217660904E-1
1.230226461E1,-8.199617267E-2,2.087709308E-2,3.558826447E-2
1.231822530E1,-9.425790608E-2,8.220353723E-2,2.336950302E-1
1.233421651E1,-5.335965753E-2,6.296196580E-2,3.696889877E-1
1.235017721E1,-3.455072641E-3,2.746596932E-2,1.371231079E-1
1.236616842E1,2.648115158E-3,-4.668056965E-3,-1.863660812E-1
1.238215963E1,-1.902908087E-3,-5.205920339E-2,-2.800703049E-1
1.239812032E1,-3.721466660E-2,-9.306941926E-2,-1.152801514E-1
1.241405050E1,-5.652625859E-2,-9.241314977E-2,1.356821060E-1
1.243007223E1,-5.066864192E-2,-8.897418529E-2,1.736021042E-1
1.244600240E1,-1.748758554E-2,-5.838004500E-2,9.188365936E-2
1.246202413E1,-3.033429384E-3,-3.314357996E-2,8.204841614E-2
1.247795431E1,-5.871705711E-2,7.944226265E-3,4.353046417E-2
1.249394552E1,-8.357714117E-2,2.537508309E-2,5.770015717E-2
1.250987569E1,-3.863993287E-2,4.599331319E-2,6.707000732E-2
1.252589742E1,-7.812350988E-3,2.669712901E-2,9.319591522E-2
1.254188863E1,4.125502706E-2,-2.288801223E-2,4.506587982E-2
1.255784933E1,9.333932400E-2,-1.109164059E-1,-1.754674911E-1
1.257384054E1,3.017133474E-2,-1.137266159E-1,-4.637908936E-2
1.258980123E1,-9.582380950E-2,-6.727704406E-2,1.163387299E-1
1.260579244E1,-1.442646682E-1,-4.130490124E-4,1.115198135E-1
1.262178365E1,-8.953431249E-2,5.493846908E-2,1.114559174E-1
1.263774435E1,2.062320709E-5,7.933229208E-2,8.507633209E-2
1.265373556E1,7.909059525E-2,6.167762727E-2,5.627250671E-2
1.266966573E1,5.888134241E-2,-5.271891598E-3,1.068401337E-2
1.268568746E1,1.978051662E-2,-6.712348759E-2,-8.756732941E-2
1.270167867E1,-5.926112831E-2,-7.678774744E-2,-1.641969681E-1
1.271763936E1,-8.953396976E-2,-8.035877347E-2,-7.075119019E-2
1.273366109E1,-4.448747635E-2,-4.028747231E-2,1.807937622E-1
1.274956075E1,1.349374652E-2,-1.836121082E-2,2.958517075E-1
1.276558248E1,2.536350489E-2,-2.498875558E-2,1.043844223E-1
1.278151266E1,2.939122915E-2,-3.468842804E-2,-1.277589798E-1
1.279753438E1,-7.169455290E-3,-1.406699419E-2,-1.323270798E-1
1.281346456E1,-6.082966924E-2,-1.158890128E-2,7.867240906E-2
1.282948629E1,-6.432396173E-2,-7.877022028E-3,2.537145615E-1
1.284544698E1,-2.333268523E-2,-2.781535685E-2,1.365776062E-1
1.286143819E1,-7.201746106E-3,-5.223448575E-2,-1.625175476E-1
1.287742940E1,-5.200505257E-5,-6.364968419E-2,-2.914924622E-1
1.289339010E1,-2.405929565E-2,-3.886573017E-2,-5.640792847E-2
1.290941183E1,-4.480133951E-2,-8.910298347E-3,3.774261475E-1
1.292534200E1,-3.031602502E-2,-1.636689901E-2,3.920965195E-1
1.294133321E1,-3.072315454E-2,-1.954343915E-2,4.977893829E-2
1.295729391E1,-3.026999533E-2,-1.444885135E-2,-1.250009537E-1
1.297331563E1,-7.072164118E-2,-1.019290090E-2,-2.038326263E-1
1.298930685E1,-3.653404117E-2,-3.456050158E-2,-3.973131180E-1
1.300523702E1,2.886775136E-2,-1.080724597E-2,2.686109543E-1
1.302122823E1,6.216907501E-2,-5.006968975E-2,4.276857376E-1
1.303715841E1,5.438424647E-2,-8.239597082E-2,8.097362518E-2
1.305318014E1,-1.218800247E-2,-1.034675539E-1,-1.366386414E-1
1.306917135E1,-6.090500951E-2,-5.084800720E-2,-1.315736771E-1
1.308510152E1,-7.501773536E-2,1.925599575E-2,1.501274109E-2
1.310109273E1,-7.517506182E-2,4.437592626E-2,2.168426514E-1
1.311705343E1,-6.662212312E-2,7.937693596E-2,3.347978592E-1
1.313304464E1,-3.259812295E-2,6.068468094E-3,-3.233194351E-1
1.314894430E1,1.350562274E-2,-8.819848299E-3,4.620437622E-1
1.316496602E1,-6.934389472E-2,-8.201634884E-2,-5.026960373E-1
1.318095724E1,-3.594388068E-2,-1.278539598E-1,1.393566132E-1
1.319691793E1,-6.723180413E-2,-1.130443811E-1,-2.454414368E-1
1.321290914E1,-6.344825029E-3,-9.209164977E-2,3.370761871E-1
1.322883932E1,2.654641867E-3,-7.650682330E-2,7.909202576E-2
1.324486104E1,-3.348255157E-2,-1.406866312E-2,-1.478099823E-1
1.326085226E1,-6.299823523E-2,1.993858814E-2,-2.021627426E-1
1.327681295E1,-7.875455916E-2,4.774865508E-2,-2.645587921E-2
1.329271261E1,-4.128964245E-2,4.823583364E-2,2.689294815E-1
1.330870382E1,3.577101231E-2,2.397704124E-2,3.676729202E-1
1.332466451E1,3.302295506E-2,-9.034967422E-2,4.465961456E-2
1.334062520E1,5.702421069E-2,-1.028971672E-1,-4.841918945E-1
1.335664693E1,-5.370409787E-2,-7.646203041E-2,-2.701644897E-1
1.337260763E1,-9.032261372E-2,-1.902729273E-2,2.125310898E-1
1.338856832E1,-3.839701414E-2,8.745908737E-3,4.460783005E-1
1.340455953E1,5.776344240E-2,1.447272301E-2,3.557662964E-1
1.342048971E1,6.311877072E-2,-4.837095737E-3,-7.256031036E-2
1.343645040E1,2.465477586E-2,-1.530742645E-2,-3.763122559E-1
1.345247213E1,6.727725267E-4,-3.306931257E-2,-2.127161026E-1
1.346849386E1,-1.152098179E-2,-4.188668728E-2,3.149442673E-1
1.348445455E1,-2.475547791E-2,-9.572678804E-2,6.335039139E-1
1.350041524E1,-5.896122754E-2,-1.247829199E-1,3.266582489E-1
1.351643697E1,-8.259151876E-2,-1.222851872E-1,-3.038778305E-1
1.353239767E1,-6.255280972E-2,-6.474626064E-2,-4.788284302E-1
1.354838888E1,-7.856951654E-2,1.006078720E-2,-1.693010330E-1
1.356441060E1,-3.070347011E-2,6.028139591E-2,2.579774857E-1
1.358034078E1,4.900351167E-3,5.717366934E-2,2.229461670E-1
1.359636251E1,1.116663218E-3,2.127414942E-2,-1.116151810E-1
1.361232320E1,-3.059770167E-2,-2.610152960E-2,-2.449436188E-1
1.362831441E1,-4.159437120E-2,-7.593554258E-2,4.809474945E-2
1.364424459E1,-1.107519865E-2,-7.742464542E-2,6.019115448E-1
1.366026632E1,-1.102922857E-2,-8.313572407E-2,6.496391296E-1
1.367625753E1,-1.921448112E-2,-9.395676851E-2,-5.992603302E-2
1.369221822E1,-3.702740371E-2,-6.104665995E-2,-5.918617249E-1
1.370823995E1,-1.163997129E-1,1.390880346E-2,-6.222114563E-1
1.372420064E1,-1.228830814E-1,5.381155014E-2,-6.224784851E-1
1.374016134E1,-3.589436412E-3,1.153166890E-1,2.136716843E-1
1.375618307E1,6.452602148E-2,-1.544594765E-2,9.463987350E-1
1.377214376E1,5.172342062E-2,-1.272948384E-1,4.753046036E-1
1.378816549E1,-1.325337589E-2,-1.648817658E-1,-1.383161545E-1
1.380409566E1,-5.809134990E-2,-1.346412301E-1,-2.466287613E-1
1.382008688E1,-6.097861379E-2,-3.350090981E-2,1.447486877E-2
1.383598653E1,-5.704784393E-2,7.470077276E-2,1.683254242E-1
1.385200826E1,-2.077603340E-2,1.281806827E-1,1.279306412E-1
1.386799947E1,2.099616826E-2,8.827406168E-2,1.539497375E-1
1.388392965E1,2.365483344E-2,3.493547440E-2,1.771831512E-1
1.389992086E1,-6.443980336E-2,-6.215035915E-2,-1.488275528E-1
1.391588155E1,-8.117126673E-2,-1.134108305E-1,-4.428682327E-1
1.393187276E1,-3.625299782E-2,-1.173626184E-1,-2.783451080E-1
1.394783346E1,2.333626151E-3,-1.034085155E-1,1.762952805E-1
1.396382467E1,1.878459752E-2,-6.505936384E-2,4.938821793E-1
1.397981588E1,1.277838647E-2,-5.462360382E-2,5.085239410E-1
1.399577657E1,1.162563264E-2,-7.029706240E-2,5.998039246E-2
1.401176778E1,-7.451176643E-4,-6.879395247E-2,-2.424449921E-1
1.402772848E1,-2.445772290E-3,3.468275070E-3,-2.232627869E-1
1.404371969E1,3.541097045E-3,3.564703465E-2,-5.952072144E-2
1.405971090E1,1.194112003E-2,4.214024544E-2,1.745223999E-3
1.407570211E1,1.630803943E-2,1.092249155E-2,-2.048873901E-2
1.409169332E1,-2.260647714E-2,-1.082003117E-3,1.345329285E-1
1.410765401E1,-7.416539639E-2,-4.176658392E-2,2.221345901E-1
1.412364522E1,-7.590038329E-2,-2.235519886E-2,6.966018677E-2
1.413963644E1,1.463146508E-2,-9.118896723E-2,-3.540477753E-1
1.415559713E1,6.273622811E-2,-9.993672371E-3,4.214134216E-1
1.417158834E1,1.490658522E-2,-6.348800659E-2,-1.966056824E-1
1.418754903E1,-2.619333565E-2,-3.738462925E-3,3.753700256E-1
1.420354024E1,-1.090466231E-1,-2.140241861E-2,-4.983825684E-1
1.421953146E1,-7.390072197E-2,-3.632998466E-2,-3.088855743E-2
1.423546163E1,-2.441046387E-2,-4.345589876E-2,2.510738373E-2
1.425148336E1,6.806284189E-3,-5.536496639E-2,8.831691742E-2
1.426744405E1,-1.384371519E-2,-5.916106701E-2,-4.211425781E-3
1.428343526E1,-2.715987712E-2,-4.984158278E-2,-7.052612305E-2
1.429942647E1,-1.770809293E-3,-3.029578924E-2,2.364759445E-1
1.431541769E1,-2.065196633E-3,-5.526328087E-2,4.324197769E-1
1.433143941E1,-5.736333877E-2,-7.548469305E-2,5.614471436E-2
1.434743063E1,-7.340410352E-2,-4.994153976E-2,-4.134855270E-1
1.436336080E1,-4.099688679E-2,2.770918608E-2,-4.272432327E-1
1.437938253E1,3.679993749E-2,7.099682093E-2,1.007804871E-1
1.439531270E1,5.778700113E-2,4.986381531E-2,6.067533493E-1
1.441133443E1,2.086572349E-2,-2.595722675E-2,5.294561386E-1
1.442732564E1,-4.017052799E-2,-1.142413616E-1,-6.363868713E-3
1.444325582E1,-3.693240881E-2,-1.240862608E-1,-4.078493118E-1
1.445924703E1,-9.876105934E-2,-8.342140913E-2,-2.502450943E-1
1.447520772E1,-1.183274239E-1,-1.585018635E-2,-2.279214859E-1
1.449122945E1,3.350925446E-2,7.838451862E-2,1.781435013E-1
1.450722066E1,1.263431162E-1,4.270374775E-2,4.379014969E-1
1.452315084E1,1.588614583E-1,-3.463864326E-2,1.172647476E-1
1.453914205E1,2.642303705E-2,-1.124844551E-1,-2.256050110E-1
1.455507223E1,-8.336962759E-2,-1.091110706E-1,-1.060810089E-1
1.457106344E1,-9.061869979E-2,-5.115884542E-2,3.322477341E-1
1.458702413E1,-6.455871463E-2,4.927515984E-3,5.787134171E-1
1.460301534E1,-4.180811346E-2,3.314357996E-2,2.737112045E-1
1.461900655E1,-2.518606186E-2,6.133782864E-2,-4.002799988E-1
1.463499776E1,-3.503008932E-2,7.784330845E-2,-6.280269623E-1
1.465101949E1,-2.963142842E-2,4.502803087E-2,-2.032318115E-1
1.466701070E1,-1.295413077E-2,-4.075348377E-3,4.254207611E-1
1.468297140E1,-1.279702783E-2,-9.265112877E-2,6.773376465E-1
1.469896261E1,-2.500475943E-2,-1.791530848E-1,2.432250977E-1
1.471492330E1,-7.358495891E-2,-1.757020354E-1,-3.322362900E-1
1.473091451E1,-9.419402480E-2,-9.306728840E-2,-4.637699127E-1
1.474687520E1,-5.658372492E-2,4.771643877E-2,-2.903938293E-3
1.476286642E1,9.875044227E-3,1.305458546E-1,4.961948395E-1
1.477888814E1,4.540085793E-2,1.198630929E-1,4.818944931E-1
1.479484884E1,4.634600878E-2,2.673304081E-2,-1.533346176E-1
1.481087057E1,1.343140006E-2,-7.589280605E-2,-6.300029755E-1
1.482686178E1,-2.123279870E-2,-1.046282053E-1,-1.812829971E-1
1.484279195E1,-3.388560563E-2,-5.362629890E-2,4.209957123E-1
1.485878316E1,-1.495040953E-2,8.372068405E-4,7.515878677E-1
1.487477438E1,-1.996645331E-2,1.263296604E-2,5.561428070E-1
1.489079610E1,-1.559379697E-2,-1.445889473E-3,-1.166515350E-1
1.490678731E1,2.889642119E-2,-8.344769478E-3,-6.330432892E-1
1.492274801E1,-2.359318733E-2,1.164591312E-2,-5.225534439E-1
1.493873922E1,-3.421825916E-2,3.317052126E-2,-3.961658478E-2
1.495473043E1,-4.543198645E-2,3.730034828E-2,4.387140274E-1
1.497069112E1,-8.066252619E-2,-2.960562706E-2,6.163845062E-1
1.498668233E1,-5.635556579E-2,-1.167508364E-1,2.659101486E-1
1.500261251E1,-3.971333057E-2,-1.634721756E-1,-1.710119247E-1
1.501863424E1,-1.598107815E-2,-1.049709320E-1,-2.906808853E-1
1.503459493E1,5.244304240E-2,1.926612854E-2,-1.487321854E-1
1.505061666E1,5.653586984E-2,1.117658019E-1,1.006774902E-1
1.506660787E1,2.876886725E-2,1.221914291E-1,2.204952240E-1
1.508250753E1,-5.809205770E-2,1.004109979E-1,1.436195374E-1
1.509849874E1,-1.130620018E-1,2.338266373E-2,4.491996765E-2
1.511442892E1,1.865509152E-2,-6.552582979E-2,4.083166122E-1
1.513045064E1,-3.386173397E-2,1.043051481E-2,-2.839202881E-1
1.514644186E1,1.002534032E-1,3.954172134E-4,2.762746811E-1
1.516237203E1,2.029179037E-2,8.075118065E-2,2.069940567E-1
1.517836324E1,7.997721434E-3,-6.424963474E-3,-5.143260956E-2
1.519429342E1,-2.448374778E-2,2.751290798E-3,5.111494064E-1
1.521028463E1,-4.664346576E-2,-5.186504126E-2,-4.443597794E-1
1.522624532E1,-1.504626870E-2,-3.787875175E-2,-1.163988113E-1
1.524223653E1,1.806032658E-2,1.987755299E-3,-1.135969162E-1
1.525822774E1,-1.665130258E-3,1.789736748E-2,1.240863800E-1
1.527418844E1,-8.565366268E-3,1.651227474E-2,3.016023636E-1
1.529017965E1,-2.028647810E-2,-1.606559753E-2,1.264276505E-1
1.530614034E1,-1.465305686E-2,-2.997052670E-2,-1.974563599E-1
1.532213155E1,-4.988163710E-3,-1.855015755E-3,-1.929416656E-1
1.533812276E1,1.918748021E-3,4.683661461E-2,2.836246490E-1
1.535408346E1,-4.767188430E-2,5.643337965E-2,5.848350525E-1
1.537007467E1,-5.695659667E-2,3.114342690E-2,2.410860062E-1
1.538603536E1,5.698502064E-4,5.208766460E-2,-3.180799484E-1
1.540202657E1,-3.803669661E-2,4.460966587E-2,-7.057285309E-1
1.541804830E1,-9.535819292E-3,4.603725672E-2,-5.887145996E-1
1.543397848E1,2.885605395E-2,6.104028225E-2,4.919319153E-1
1.545000020E1,8.318535984E-2,-3.582406044E-2,8.026933670E-1
1.546599142E1,3.686797619E-2,-1.150294542E-1,2.252454758E-1
1.548192159E1,-4.090574384E-2,-1.417039633E-1,-1.906881332E-1
1.549791280E1,-9.402683377E-2,-6.713408232E-2,7.834720612E-2
1.551387350E1,-5.294301361E-2,6.100642681E-2,4.099740982E-1
1.552986471E1,-1.269665360E-2,1.310958266E-1,2.721338272E-1
1.554579488E1,1.004645228E-2,1.602219343E-1,-2.777051926E-1
1.556181661E1,1.426798105E-2,1.887421608E-1,-5.611686707E-1
1.557780782E1,-3.211989999E-3,9.229272604E-2,-3.623075485E-1
1.559376852E1,-2.464375645E-2,-3.336489201E-3,1.389932632E-1
1.560979024E1,-2.770379186E-2,-1.379597187E-1,3.890953064E-1
1.562568990E1,1.249557734E-2,-1.929119825E-1,2.890357971E-1
1.564171163E1,-2.253519744E-2,-2.077904940E-1,1.499032974E-1
1.565770284E1,-2.387370914E-2,-1.216862798E-1,7.737445831E-2
1.567366354E1,-2.480750531E-2,1.246953011E-2,4.293441772E-2
1.568968526E1,1.194162667E-2,1.276904941E-1,-1.065444946E-2
1.570558492E1,4.777984321E-2,1.309198141E-1,-9.270381927E-2
1.572154562E1,1.059186459E-2,1.107876897E-1,-7.126617432E-2
1.573750631E1,-3.180834651E-2,4.022693634E-2,-2.025699615E-1
1.575352804E1,-3.465875983E-2,-2.029997110E-2,-5.083084106E-2
1.576945821E1,-1.643230021E-2,-3.441822529E-2,3.044891357E-1
1.578547994E1,-1.237590611E-2,-2.233266830E-2,3.980846405E-1
1.580141012E1,-1.022374630E-2,-4.682838917E-3,2.944841385E-1
1.581740133E1,-1.623903215E-2,-9.621620178E-3,-1.200675964E-3
1.583336202E1,-1.670148969E-2,1.124322414E-2,-2.296333313E-1
1.584938375E1,1.049260795E-2,4.487866163E-2,-2.034921646E-1
1.586537496E1,-8.397847414E-4,3.809231520E-2,-1.382827759E-2
1.588130514E1,-1.044090092E-2,2.235949039E-2,1.066761017E-1
1.589729635E1,-4.642486572E-3,-2.658969164E-2,1.024675369E-1
1.591322652E1,-4.501993954E-2,-7.215631008E-2,1.194477081E-1
1.592924825E1,-5.545424670E-2,-8.794403076E-2,6.425476074E-2
1.594523946E1,-2.108523250E-2,-4.640114307E-2,7.107543945E-2
1.596116964E1,6.047427654E-3,-4.090011120E-3,1.160488129E-1
1.597716085E1,4.174804688E-2,5.700391531E-2,-4.232406616E-3
1.599315206E1,2.113115788E-2,5.384725332E-2,-9.552860260E-2
1.600911275E1,5.736336112E-3,6.467097998E-2,-4.514980316E-2
1.602501241E1,-3.869351000E-2,5.917865038E-2,4.381179810E-2
1.604094259E1,-1.692952216E-2,2.637058496E-2,1.805782318E-1
1.605693380E1,-1.200707257E-2,1.440197229E-2,1.542406082E-1
1.607295553E1,4.589661956E-3,-1.967775822E-2,3.185272217E-2
1.608894674E1,2.794264257E-2,-1.282393932E-2,-1.867866516E-2
1.610496847E1,-5.352616310E-3,-1.842087507E-2,1.236534119E-2
1.612086812E1,-9.101659060E-3,3.459870815E-3,4.768562317E-1
1.613688985E1,-6.335587800E-2,-2.911031246E-3,-3.538646698E-1
1.615288106E1,5.109021068E-2,-7.874369621E-3,4.769134521E-1
1.616890279E1,-1.962354779E-2,2.412432432E-2,-3.444252014E-1
1.618489400E1,6.472766399E-4,-4.050683975E-2,8.871555328E-2
1.620085470E1,-5.479423702E-2,2.399015427E-2,6.214237213E-2
1.621684591E1,-2.287957072E-2,-4.141569138E-3,-3.859710693E-2
1.623277608E1,-1.535491645E-2,3.282845020E-3,-5.773258209E-2
1.624876729E1,1.138091087E-3,2.504968643E-2,4.547119141E-2
1.626466695E1,-5.179330707E-3,1.794713736E-2,1.893472672E-1
1.628068868E1,-7.448464632E-3,5.490779877E-3,7.194900513E-2
1.629664938E1,-7.815048099E-3,-5.956411362E-3,-1.174001694E-1
1.631264059E1,2.435207367E-3,-1.295018196E-2,-1.915788651E-1
1.632857076E1,-1.027494669E-2,-6.580352783E-4,4.335784912E-2
1.634459249E1,-1.416735351E-2,3.097087145E-2,4.384717941E-1
1.636055318E1,-5.261836946E-2,1.602166891E-2,4.066085815E-1
1.637657491E1,-4.582256824E-2,3.005743027E-3,-8.804607391E-2
1.639253561E1,-3.195998818E-2,7.262229919E-4,-2.663097382E-1
1.640849630E1,-4.785536975E-2,-4.039764404E-3,-2.042570114E-1
1.642448751E1,-1.815363765E-2,5.869746208E-3,-2.610015869E-1
1.644047872E1,4.322169721E-2,2.961409092E-2,2.957563400E-1
1.645646993E1,2.785719931E-2,-1.372516155E-2,4.785785675E-1
1.647243062E1,4.314775765E-2,-6.411486864E-2,7.856655121E-2
1.648842184E1,-1.069341600E-2,-1.090508103E-1,-4.987831116E-1
1.650435201E1,-5.669754744E-2,-2.572929859E-2,-2.468194962E-1
1.652037374E1,-4.375799745E-2,4.561382532E-2,4.319849014E-1
1.653633443E1,-2.650633454E-3,8.613848686E-2,7.125473022E-1
1.655232564E1,-9.280756116E-3,6.554085016E-2,3.763570786E-1
1.656831686E1,1.421667635E-2,3.278344870E-2,-2.813587189E-1
1.658424703E1,-4.481359571E-2,3.730595112E-2,-6.917009354E-1
1.660026876E1,-6.847208738E-2,-8.487105370E-4,-5.234260559E-1
1.661625997E1,-5.081964284E-2,-2.868109941E-2,9.620380402E-2
1.663222066E1,7.935881615E-3,-4.431790113E-2,5.600328445E-1
1.664821188E1,2.295681834E-2,-9.387969971E-2,5.196256638E-1
1.666414205E1,1.898884773E-3,-1.211847067E-1,1.834020615E-1
1.668016378E1,-4.895994812E-2,-8.193951845E-2,-1.054162979E-1
1.669615499E1,-6.174904108E-2,4.254311323E-2,-1.472396851E-1
1.671211568E1,-2.978244424E-2,1.133982539E-1,-4.005432129E-2
1.672810689E1,1.809522510E-2,1.689000726E-1,1.632337570E-1
1.674400655E1,1.029165089E-2,1.049214602E-1,9.121990204E-2
1.676002828E1,-1.081980765E-2,2.515709400E-2,-2.679872513E-1
1.677601949E1,-8.761957288E-3,-4.954278469E-2,-1.739826202E-1
1.679198018E1,-1.864562929E-2,-6.927925348E-2,1.144008636E-1
1.680797140E1,-2.386046946E-2,-2.974796295E-2,2.732267380E-1
1.682390157E1,-2.247036994E-2,9.002208710E-3,3.858108521E-1
1.683992330E1,-4.515662789E-3,1.169884205E-2,2.125625610E-1
1.685591451E1,-1.233159006E-2,-1.160258055E-2,-4.490089417E-2
1.687187521E1,1.425564289E-3,-1.158148050E-2,-2.444972992E-1
1.688786642E1,-6.295144558E-3,1.904308796E-3,-2.876663208E-1
1.690382711E1,-3.477448970E-2,2.890813351E-2,-6.428241730E-2
1.691981832E1,-6.254909188E-2,-5.659043789E-3,2.740850449E-1
1.693580953E1,-3.279862553E-2,-1.409703493E-2,4.058580399E-1
1.695180074E1,-2.239811420E-2,-6.526231766E-2,2.207355499E-1
1.696779195E1,-7.727727294E-3,-6.281113625E-2,-1.035919189E-1
1.698369161E1,3.384888172E-3,-1.462250948E-2,-2.789859772E-1
1.699971334E1,2.105195820E-2,4.451990128E-2,-1.854362488E-1
1.701570455E1,-1.084654033E-2,8.612692356E-2,7.868194580E-2
1.703166524E1,-3.269392997E-2,6.842166185E-2,3.258676529E-1
1.704765646E1,-7.050387561E-2,2.159696817E-2,3.305244446E-1
1.706355611E1,-4.364897311E-2,-2.342593670E-2,1.405324936E-1
1.707957784E1,-2.623471618E-2,-3.871148825E-2,-9.071540833E-2
1.709556905E1,1.441362500E-2,-3.614485264E-2,-1.627416611E-1
1.711152975E1,2.592933178E-2,-6.226289272E-2,-6.247959137E-1
1.712752096E1,6.428763270E-3,7.402074337E-2,3.213357925E-1
1.714345113E1,-2.017201483E-2,-1.436549425E-2,-1.618356705E-1
1.715947286E1,-1.306779683E-2,-3.404855728E-3,6.618976593E-1
1.717543355E1,-6.092081964E-2,-3.351068497E-2,-2.985210419E-1
1.719142476E1,6.327807903E-3,-6.828671694E-2,8.160591125E-2
1.720741598E1,-1.303991675E-2,1.432818174E-2,-2.658729553E-1
1.722334615E1,-3.780139238E-2,1.723295450E-2,-6.470203400E-2
1.723936788E1,-1.691232622E-2,2.639138699E-2,1.653299332E-1
1.725535909E1,-2.112908661E-2,3.573238850E-2,2.203664780E-1
1.727131978E1,7.113203406E-3,2.728730440E-2,8.593368530E-2
1.728731100E1,1.042294502E-2,-8.182287216E-3,-1.586790085E-1
1.730324117E1,-4.698403925E-2,-3.252995014E-2,-2.352943420E-1
1.731926290E1,-4.465459287E-2,-3.532767296E-3,-9.748458862E-3
1.733525411E1,-4.226091504E-2,3.512430191E-2,4.599790573E-1
1.735121480E1,-3.738599271E-2,4.865717888E-2,5.025663376E-1
1.736717550E1,-2.400578558E-2,4.629433155E-3,-1.113986969E-2
1.738307516E1,4.022121429E-3,-1.652443409E-2,-3.475389481E-1
1.739909688E1,-5.243252963E-2,3.794431686E-4,-3.046159744E-1
1.741508810E1,-7.663322985E-2,-7.469177246E-3,-2.296161652E-1
1.743101827E1,2.436093986E-2,3.693401814E-2,4.157629013E-1
1.744700948E1,7.062236965E-2,-3.460049629E-3,5.121889114E-1
1.746293966E1,7.577624917E-2,-3.635418415E-2,2.586269379E-2
1.747896139E1,-1.170161366E-2,-6.623238325E-2,-5.180912018E-1
1.749495260E1,-6.735622883E-2,-4.166305065E-3,-1.801662445E-1
1.751091329E1,-9.654752165E-2,3.275907040E-2,5.174303055E-1
1.752690450E1,-5.909967422E-2,7.455247641E-2,7.473850250E-1
1.754289571E1,-4.124186188E-2,6.365466118E-2,2.961406708E-1
1.755888692E1,-3.056590259E-2,6.342738867E-2,-4.714832306E-1
1.757487813E1,-1.751667261E-2,4.889059067E-2,-7.209291458E-1
1.759083883E1,-2.783834934E-4,4.340004921E-2,-2.985725403E-1
1.760683004E1,-2.293556929E-2,-2.184021473E-2,3.423480988E-1
1.762276021E1,-5.268816650E-2,-9.741407633E-2,6.641492844E-1
1.763878194E1,-3.810885549E-2,-1.621144414E-1,4.051313400E-1
1.765474264E1,-8.246196806E-2,-1.398104429E-1,-8.213233948E-2
1.767073385E1,-4.357010871E-2,-4.237508774E-2,-3.559932709E-1
1.768669454E1,1.278050244E-2,8.106142282E-2,-2.028408051E-1
1.770265523E1,2.156388760E-2,1.673223972E-1,1.399726868E-1
1.771858541E1,2.563150227E-2,1.657197475E-1,3.197927475E-1
1.773457662E1,1.308317482E-2,8.185911179E-2,1.926527023E-1
1.775053731E1,-6.582625210E-2,-4.282444715E-2,-2.339553833E-1
1.776655904E1,-7.070981711E-2,-7.787483931E-2,-2.673959732E-1
1.778255025E1,-1.283839345E-2,-5.839419365E-2,7.323837280E-2
1.779848043E1,4.197104275E-2,1.722693443E-2,3.084259033E-1
1.781444112E1,5.229082704E-2,5.137348175E-2,3.992738724E-1
1.783040182E1,1.930296421E-2,4.521799088E-2,1.613063812E-1
1.784639303E1,-3.707239032E-2,6.582558155E-3,-1.486015320E-1
1.786229268E1,-7.336091250E-2,-1.167231798E-2,-2.496957779E-1
1.787831441E1,-5.998202413E-2,-1.543486118E-2,-1.871738434E-1
1.789427511E1,-3.255681694E-2,5.086064339E-4,5.778026581E-2
1.791026632E1,-1.547679305E-2,-1.590037346E-2,2.643384933E-1
1.792619649E1,-2.234193683E-2,-3.238832951E-2,2.404155731E-1
1.794218771E1,-2.902588248E-2,-6.736665964E-2,8.184051514E-2
1.795817892E1,-4.082041234E-2,-6.662064791E-2,-7.892799377E-2
1.797410909E1,-1.335333288E-2,-7.881641388E-3,-1.442718506E-1
1.799010030E1,4.874318838E-3,4.749643803E-2,-2.451992035E-2
1.800603048E1,-9.770795703E-3,8.585655689E-2,9.301280975E-2
1.802205221E1,-1.176375151E-2,6.782358885E-2,1.960535049E-1
1.803807394E1,-4.665330052E-2,5.285185575E-2,1.574697495E-1
1.805403463E1,-3.834588081E-2,6.857633591E-3,3.967952728E-2
1.807005636E1,-5.214414746E-2,-2.128696442E-2,-8.518886566E-2
1.808595602E1,-2.601563931E-2,-1.707673073E-2,-1.307249069E-1
1.810194723E1,2.078121901E-2,1.193565130E-2,5.148124695E-2
1.811787740E1,5.404035747E-2,-1.543253660E-2,5.017118454E-1
1.813386861E1,-7.111106068E-2,1.184046268E-2,-2.286338806E-1
1.814985982E1,-3.046368062E-2,-6.268709898E-2,-1.476659775E-1
1.816582052E1,-8.325913548E-2,1.943051815E-2,-3.548240662E-2
1.818181173E1,-7.375221699E-2,-1.540428400E-2,-3.923292160E-1
1.819777242E1,3.246679902E-3,2.748370171E-2,5.389919281E-1
1.821373312E1,2.844104171E-2,2.428847551E-2,4.764518738E-1
1.822969381E1,9.264498949E-3,8.480787277E-3,3.057003021E-2
1.824571554E1,-2.257715166E-2,-7.812976837E-4,-2.595281601E-1
1.826170675E1,-4.058303684E-2,1.940482855E-2,-3.382310867E-1
1.827766744E1,-3.329403698E-2,2.959996462E-2,-2.369785309E-2
1.829368917E1,-1.319637895E-2,6.972092390E-2,5.301523209E-1
1.830968038E1,-2.082644403E-2,2.432727814E-2,5.896139145E-1
1.832564107E1,-5.700465292E-2,-9.832084179E-3,9.015941620E-2
1.834163229E1,-4.024503380E-2,-1.828759909E-2,-3.231287003E-1
1.835753194E1,-1.109838486E-1,-1.656520367E-2,-4.504423141E-1
1.837352315E1,-5.380439758E-2,2.465289831E-2,-3.568286896E-1
1.838945333E1,6.467172503E-2,8.773767948E-2,4.498472214E-1
1.840547506E1,9.492050111E-2,-4.016697407E-3,6.064319611E-1
1.842146627E1,5.906242132E-2,-5.396133661E-2,3.631210327E-2
1.843742696E1,-7.587870955E-2,-1.180812716E-1,-5.244789124E-1
1.845344869E1,-1.544193178E-1,-3.102159500E-2,-1.938915253E-1
1.846940938E1,-8.857487887E-2,3.848558664E-2,5.131578445E-1
1.848543111E1,-1.055210829E-3,8.452969790E-2,7.167301178E-1
1.850142232E1,6.283102930E-2,9.009855986E-2,2.056665421E-1
1.851738302E1,2.979880571E-2,5.802059174E-2,-3.631982803E-1
1.853340475E1,-6.655399501E-2,4.568463564E-2,-6.128034592E-1
1.854933492E1,-1.024866700E-1,1.183545589E-2,-3.153619766E-1
1.856535665E1,-5.517919362E-2,-6.954908371E-3,2.269563675E-1
1.858134786E1,6.217464805E-3,-6.715977192E-2,5.653295517E-1
1.859730855E1,3.207764030E-2,-1.013301015E-1,3.926973343E-1
1.861329976E1,-2.782414854E-2,-1.016097665E-1,-4.885959625E-2
1.862922994E1,-8.542698622E-2,-4.066902399E-2,-2.700204849E-1
1.864525167E1,-7.324032485E-2,6.299722195E-2,-1.147327423E-1
1.866124288E1,-9.972602129E-3,1.425932050E-1,1.917552948E-1
1.867720357E1,5.391035974E-2,1.510782838E-1,2.730426788E-1
1.869322530E1,4.243764281E-2,6.238251925E-2,7.152462006E-2
1.870918600E1,-5.294722319E-2,-2.635395527E-2,-3.740091324E-1
1.872517721E1,-5.168978870E-2,-6.471598148E-2,-3.090038300E-1
1.874113790E1,-6.320912391E-2,-3.153938055E-2,2.594032288E-1
1.875712911E1,-2.945093811E-2,9.588301182E-3,5.304145813E-1
1.877312032E1,4.181897640E-2,4.317623377E-2,4.631948471E-1
1.878908102E1,5.295310915E-2,1.658743620E-2,4.484176636E-2
1.880504171E1,1.474197209E-2,1.986044645E-2,-3.584594727E-1
1.882097188E1,-5.904990435E-2,1.624733210E-2,-4.040527344E-1
1.883699361E1,-6.302043051E-2,3.472512960E-2,-1.709327698E-1
1.885292379E1,-6.253830343E-2,4.252755642E-2,2.181310654E-1
1.886894552E1,-3.617870808E-2,-1.913803816E-2,4.222726822E-1
1.888490621E1,-3.872036934E-2,-7.751202583E-2,3.142652512E-1
1.890092794E1,-4.741794616E-2,-8.349710703E-2,-1.223850250E-2
1.891685812E1,-1.071967185E-2,-5.163615942E-2,-2.475938797E-1
1.893284933E1,3.681877255E-2,1.649004221E-2,-1.710777283E-1
1.894884054E1,3.596924245E-2,9.513652325E-2,3.519248962E-2
1.896483175E1,-3.137713671E-2,1.093968749E-1,2.007741928E-1
1.898082296E1,-9.546887130E-2,7.404339314E-2,2.247514725E-1
1.899672262E1,-7.491841167E-2,4.177784920E-2,9.755134583E-2
1.901271383E1,-1.137226820E-2,-9.634494781E-4,-3.929519653E-2
1.902867452E1,1.999135315E-2,-2.409136295E-2,-1.256160736E-1
1.904466573E1,4.314881563E-2,-3.398746252E-2,-1.530551910E-2
1.906059591E1,-2.013385296E-2,-1.137274504E-2,1.358242035E-1
1.907661764E1,-6.338792294E-2,8.444786072E-3,1.765813828E-1
1.909260885E1,-6.514786184E-2,4.841089249E-4,9.730815887E-2
1.910856954E1,2.666085958E-3,1.730239391E-2,-4.434013367E-2
1.912456075E1,5.797131360E-2,-4.175603390E-3,3.169956207E-1
1.914046041E1,-2.355691791E-2,2.381908894E-2,-5.184478760E-1
1.915648214E1,-9.430691600E-3,-3.782665730E-2,2.024497986E-1
1.917241231E1,-7.871646434E-2,3.687441349E-2,1.258726120E-1
1.918843404E1,-2.427178621E-2,-3.891384602E-2,2.500257492E-1
1.920436422E1,-3.300890326E-3,1.045298576E-2,2.064495087E-1
1.922035543E1,-1.145665348E-2,-4.541635513E-3,-1.936054230E-1
1.923628561E1,-4.247466475E-2,1.891887188E-2,-7.610225677E-2
1.925230733E1,-2.645224333E-3,5.645442009E-2,2.977256775E-1
1.926826803E1,-1.913855970E-2,5.467879772E-2,4.771451950E-1
1.928428976E1,-6.500208378E-2,2.428609133E-2,6.925487518E-2
1.930028097E1,-5.806098133E-2,-8.358359337E-3,-2.596044540E-1
1.931621114E1,-7.101318240E-2,-6.266951561E-3,-2.286701202E-1
1.933220235E1,-8.081910759E-2,1.639717817E-2,-2.926721573E-1
1.934813253E1,8.649188280E-2,4.674386978E-2,1.969604492E-1
1.936415426E1,1.077511013E-1,-1.058918238E-2,5.498762131E-1
1.938014547E1,5.977444351E-2,-4.536384344E-2,1.069297791E-1
1.939607564E1,-8.338177949E-2,-7.107198238E-2,-4.655866623E-1
1.941206686E1,-1.314535737E-1,-1.121729612E-2,-2.809267044E-1
1.942799703E1,-1.051101461E-1,8.882915974E-2,3.495950699E-1
1.944398824E1,-3.211286664E-2,9.994888306E-2,6.061153412E-1
1.945991842E1,-7.792994380E-3,7.454758883E-2,2.319908142E-1
1.947594015E1,-2.897442877E-2,-1.048678160E-2,-4.752836227E-1
1.949190084E1,-2.414059639E-2,-4.282796383E-2,-5.519123077E-1
1.950789205E1,-2.080304921E-2,1.096725464E-4,-1.078214645E-1
1.952388326E1,-4.821315408E-3,7.076191902E-2,3.558998108E-1
1.953978292E1,3.362695873E-2,5.779647827E-2,5.627164841E-1
1.955574361E1,1.829330623E-2,-4.129630327E-2,3.970537186E-1
1.957170431E1,-5.271162093E-2,-1.037375927E-1,9.397029877E-2
1.958769552E1,-1.032452956E-1,-1.090525389E-1,-1.446828842E-1
1.960368673E1,-7.424630225E-2,-3.678607941E-2,-2.412614822E-1
1.961967794E1,-1.349082589E-2,6.848299503E-2,-1.360177994E-1
1.963557760E1,3.439222276E-2,1.151857972E-1,7.233524323E-2
1.965156881E1,5.642579496E-2,1.083661318E-1,1.010866165E-1
1.966749898E1,-3.160156310E-2,5.494999886E-2,-1.648616791E-2
1.968349020E1,-3.697598726E-2,-2.494269609E-2,-1.746015549E-1
1.969945089E1,-6.858722121E-2,-2.116614580E-2,1.561031342E-1
1.971544210E1,-3.635664284E-2,-3.155803680E-2,2.807464600E-1
1.973143331E1,3.208553791E-2,-1.348179579E-2,1.512022018E-1
1.974739400E1,6.861661375E-2,6.857275963E-3,-3.359317780E-2
1.976338521E1,5.234850943E-2,4.601347446E-2,-1.152715683E-1
1.977934591E1,-4.616510123E-2,5.101639032E-2,-1.948165894E-2
1.979533712E1,-6.827428937E-2,1.482748985E-2,6.445121765E-2
1.981132833E1,-4.041420668E-2,-1.981854439E-3,3.108978271E-2
1.982728902E1,-2.079305053E-2,-1.933425665E-2,9.918212891E-5
1.984328023E1,-2.094328403E-2,-5.414378643E-2,2.652454376E-2
1.985921041E1,-8.844703436E-3,-5.670863390E-2,1.198835373E-1
1.987523214E1,-4.020506889E-2,-2.874833345E-2,1.842823029E-1
1.989116231E1,-1.442117989E-2,1.301789284E-2,1.095962524E-1
1.990715353E1,-4.405930638E-3,5.250668526E-2,-6.104660034E-2
1.992311422E1,2.976998687E-2,7.829862833E-2,-1.377134323E-1
1.993907491E1,3.686487675E-3,5.968910456E-2,-3.933048248E-2
1.995503561E1,-6.897908449E-2,3.883695602E-2,1.263055801E-1
1.997099630E1,-9.298416972E-2,5.891561508E-3,1.863927841E-1
1.998695699E1,-5.389764160E-2,-1.228344440E-2,1.264152527E-1
2.000297872E1,2.055843174E-2,-2.615910769E-2,5.425262451E-2
2.001896993E1,5.664230883E-2,-2.849853039E-2,-3.948879242E-2
2.003490011E1,2.356736362E-2,-1.226645708E-2,-2.056598663E-2
2.005092184E1,-2.438881993E-2,-3.345549107E-3,7.994270325E-2
2.006685201E1,-6.258125603E-2,3.525257111E-3,6.076335907E-2
2.008287374E1,-4.569397867E-2,2.755320072E-2,-8.664131165E-3
2.009886495E1,-3.837781399E-2,3.397274017E-2,-5.881977081E-2
2.011479513E1,-1.396426558E-2,-1.092731953E-2,-1.591558456E-1
2.013078634E1,-3.039543331E-2,3.536909819E-2,2.840127945E-1
2.014674703E1,-3.585010022E-2,-3.683072329E-2,-3.337469101E-1
2.016273824E1,2.052921057E-2,-1.429677010E-2,4.799690247E-1
2.017869894E1,-3.277501464E-2,-2.598512173E-2,-4.541044235E-1
2.019469015E1,1.874151826E-2,6.496310234E-4,1.538820267E-1
2.021068136E1,-1.066902280E-2,7.713890076E-2,-1.789112091E-1
2.022664205E1,-3.077244759E-2,5.039155483E-2,3.260679245E-1
2.024263326E1,-4.915712774E-2,2.896666527E-2,1.194810867E-1
2.025862447E1,-5.220395327E-2,6.657540798E-3,-8.957099915E-2
2.027455465E1,-7.410361618E-2,9.043574333E-3,-2.072324753E-1
2.029057638E1,-2.558621764E-2,7.109820843E-3,-3.289623260E-1
2.030650655E1,9.406897426E-2,3.912425041E-2,1.126708984E-1
2.032252828E1,1.206887513E-1,-2.308994532E-2,5.182342529E-1
2.033851949E1,7.676701248E-2,-5.520099401E-2,2.358789444E-1
2.035448018E1,-6.085105240E-2,-6.648641825E-2,-3.678560257E-1
2.037050191E1,-1.408577710E-1,-2.462875843E-2,-2.840356827E-1
2.038643209E1,-1.043404713E-1,6.220030785E-2,2.623910904E-1
2.040245382E1,-2.974760532E-2,1.055997610E-1,6.121854782E-1
2.041844503E1,4.351185262E-2,6.186252832E-2,4.342880249E-1
2.043437521E1,5.926539004E-2,5.054801702E-2,-1.440877914E-1
2.045036642E1,5.241662264E-3,3.023040295E-2,-5.616626740E-1
2.046632711E1,-5.608916283E-2,-7.344067097E-3,-4.848356247E-1
2.048234884E1,-6.066659838E-2,-3.964424133E-3,-3.598785400E-2
2.049837057E1,-1.564663649E-2,-2.388381958E-2,5.015306473E-1
2.051433126E1,1.412616670E-2,-9.262305498E-2,5.784034729E-1
2.053029195E1,-2.745704353E-2,-9.805297852E-2,2.209043503E-1
2.054619161E1,-4.389025271E-2,-5.717056990E-2,-2.613992691E-1
2.056221334E1,-3.685072064E-2,2.568757534E-2,-3.887119293E-1
2.057820455E1,3.471359611E-3,1.197062135E-1,-1.177606583E-1
2.059413473E1,6.348748505E-2,1.445677876E-1,2.970390320E-1
2.061015646E1,3.938235343E-2,9.824508429E-2,4.264459610E-1
2.062608663E1,-6.448300928E-2,-2.826035023E-3,9.305095673E-2
2.064207784E1,-7.168382406E-2,-7.520914078E-2,-3.720369339E-1
2.065803854E1,-6.194516271E-2,-6.984686852E-2,-1.373662949E-1
2.067402975E1,-3.948569298E-3,6.325960159E-3,1.600456238E-1
2.069005147E1,7.353617251E-2,4.571062326E-2,3.231363297E-1
2.070598165E1,6.206013262E-2,8.152836561E-2,2.844972610E-1
2.072200338E1,1.740482450E-2,6.115746498E-2,5.867481232E-2
2.073799459E1,-7.846899331E-2,2.776974440E-2,-1.910076141E-1
2.075392476E1,-8.676189929E-2,-6.044983864E-3,-2.582597733E-1
2.076991598E1,-6.641491503E-2,-1.770895720E-2,-8.074283600E-2
2.078587667E1,-1.651221514E-2,-7.009029388E-3,1.449241638E-1
2.080189840E1,-1.482944191E-2,-2.151441574E-2,2.673807144E-1
2.081785909E1,-1.665408909E-2,-3.309190273E-2,1.786394119E-1
2.083385030E1,-2.324341238E-2,-2.746760845E-2,3.387451172E-3
2.084984151E1,-2.540376782E-2,1.702898741E-2,-1.454753876E-1
2.086580221E1,3.685951233E-4,4.189062119E-2,-1.000833511E-1
2.088179342E1,2.027705312E-3,6.334871054E-2,8.923816681E-2
2.089775411E1,-1.960343122E-2,7.034707069E-2,1.731967926E-1
2.091374532E1,-4.834939539E-2,4.284143448E-2,1.300163269E-1
2.092973653E1,-6.780188531E-2,1.525479555E-2,6.032657623E-2
2.094572774E1,-1.962547004E-2,4.547834396E-5,6.103515625E-5
2.096171896E1,1.154096425E-2,-8.215606213E-3,-3.832340240E-2
2.097771017E1,3.026244044E-2,-2.096891403E-2,-1.921844482E-2
2.099370138E1,-1.778408885E-3,2.014768124E-2,4.786586761E-2
2.100969259E1,-4.515941441E-2,2.729833126E-3,1.435918808E-1
2.102562276E1,-6.185826659E-2,1.179170609E-2,9.789371490E-2
2.104161397E1,-4.911623895E-2,2.893328667E-3,6.407070160E-2
2.105757467E1,-2.335058153E-2,-4.911422729E-4,-1.281356812E-2
2.107356588E1,-1.379223168E-2,5.329012871E-3,-8.956336975E-2
2.108955709E1,-3.376066685E-3,-4.720866680E-3,-9.662628174E-2
2.110554830E1,-1.487874985E-2,1.982927322E-3,-4.361724854E-2
2.112153951E1,-1.007564366E-2,-3.947520256E-2,5.726623535E-2
2.113750021E1,-5.189553648E-2,4.091930389E-2,2.848329544E-1
2.115349142E1,-1.789133251E-2,-9.461104870E-3,3.323612213E-1
2.116948263E1,3.807857633E-3,4.197573662E-2,3.292055130E-1
2.118544332E1,-1.802544296E-2,1.109224558E-2,-5.429239273E-1
2.120143453E1,-4.153123498E-2,3.054124117E-2,1.871967316E-1
2.121739522E1,-1.010472551E-1,3.660249710E-2,-1.882400513E-1
2.123338644E1,1.406440139E-2,4.997611046E-2,7.126426697E-2
2.124937765E1,7.669506967E-2,1.001358032E-4,3.786373138E-1
2.126533834E1,8.547231555E-2,-4.738426208E-2,1.395196915E-1
2.128132955E1,-2.500943840E-2,-8.802092075E-2,-2.795820236E-1
2.129725973E1,-1.075225845E-1,-4.357933998E-2,-1.239309311E-1
2.131328146E1,-1.181520373E-1,2.498036623E-2,3.694896698E-1
2.132924215E1,-5.208109319E-2,7.438015938E-2,5.464410782E-1
2.134523336E1,-2.070292830E-3,6.085556746E-2,3.037109375E-1
2.136122457E1,2.081035078E-2,5.756086111E-2,-2.026767731E-1
2.137715475E1,1.045194268E-2,4.319667816E-2,-5.409431458E-1
2.139317647E1,-4.331685603E-2,2.734345198E-2,-4.687528610E-1
2.140916768E1,-7.255823910E-2,-6.784796715E-3,-7.480716705E-2
2.142512838E1,-4.485481977E-2,-3.538107872E-2,3.838787079E-1
2.144111959E1,-1.967252791E-2,-9.061658382E-2,5.400323868E-1
2.145704976E1,-8.148670197E-3,-1.289486289E-1,3.024911880E-1
2.147307149E1,-2.916647494E-2,-8.925646544E-2,-4.577732086E-2
2.148903219E1,-6.021112204E-2,-8.795917034E-3,-2.070941925E-1
2.150502340E1,-1.701703668E-2,9.317761660E-2,-1.284856796E-1
2.152098409E1,7.267922163E-3,1.602632999E-1,9.177780151E-2
2.153697530E1,1.649546623E-2,1.370555162E-1,1.828145981E-1
2.155299703E1,-6.383360177E-2,4.700142145E-2,3.185939789E-2
2.156892721E1,-3.454458714E-2,-2.262783051E-2,-2.794532776E-1
2.158494894E1,-2.682414651E-2,-5.074310303E-2,-6.121826172E-2
2.160087911E1,-4.316899180E-2,-3.152847290E-2,2.170476913E-1
2.161687032E1,-1.105783880E-2,-6.542205811E-4,3.129920959E-1
2.163276998E1,-6.085634232E-5,2.041727304E-2,2.192687988E-1
2.164876119E1,2.090397477E-2,3.908795118E-2,-1.604843140E-2
2.166466085E1,-6.652027369E-4,3.096091747E-2,-7.166767120E-2
2.168065206E1,-3.971710801E-2,1.449108124E-3,-5.994224548E-2
2.169655172E1,-4.972369969E-2,-5.014955997E-3,-1.483526230E-1
2.171257345E1,-6.607916951E-2,-1.319813728E-2,-1.070737839E-1
2.172853414E1,-5.248701572E-2,-3.170126677E-2,8.757781982E-2
2.174455587E1,-5.330200493E-2,-2.326071262E-2,2.747640610E-1
2.176048604E1,-2.948543429E-2,-1.441031694E-2,2.913064957E-1
2.177647726E1,1.134201884E-3,-7.904529572E-3,1.301918030E-1
2.179237691E1,2.243858576E-2,1.425069571E-2,-1.100006104E-1
2.180839864E1,-1.797007024E-2,5.791234970E-2,-1.774902344E-1
2.182432882E1,-5.640263855E-2,9.160202742E-2,-7.452678680E-2
2.184035055E1,-6.152025610E-2,8.575260639E-2,1.340265274E-1
2.185634176E1,-5.862542987E-2,5.850297213E-2,2.322797775E-1
2.187230245E1,-4.307614267E-2,1.955461502E-2,1.099491119E-1
2.188826314E1,-1.878286898E-2,-3.472185135E-2,-7.467937469E-2
2.190422384E1,1.460708678E-2,-4.499751329E-2,-1.537322998E-1
2.192021505E1,2.135986090E-2,-2.629595995E-2,-3.132915497E-2
2.193614522E1,-1.495903730E-2,-2.561563253E-2,1.246709824E-1
2.195207540E1,-3.931406140E-2,1.486968994E-2,2.205944061E-1
2.196809713E1,-2.714480460E-2,6.595969200E-3,1.437397003E-1
2.198402730E1,-1.707772911E-2,-1.208639145E-2,2.117347717E-2
2.200004903E1,6.670504808E-4,5.482375622E-3,-5.109500885E-2
2.201604024E1,-1.001930237E-2,-1.420557499E-2,-7.285976410E-2
2.203200094E1,-2.695281804E-2,-1.383423805E-3,-3.928089142E-2
2.204796163E1,-4.455977678E-2,4.249030352E-2,-4.384422302E-2
2.206392232E1,-6.156891584E-3,4.229843616E-2,7.617092133E-2
2.207991354E1,-3.795996308E-3,4.953223467E-2,2.702665329E-1
2.209581319E1,-1.632489264E-2,3.427547216E-2,1.936025620E-1
2.211183492E1,-1.226698309E-1,3.350913525E-2,-1.011308670E0
2.212776510E1,-3.991173208E-2,-2.152979374E-3,4.104108810E-1
2.214375631E1,-1.341287494E-1,5.109250546E-3,-5.376729965E-1
2.215971700E1,-7.045209408E-3,-2.213269472E-2,5.873584747E-2
2.217573873E1,6.906500459E-2,6.764012575E-2,5.207157135E-2
2.219169942E1,1.330886930E-1,-5.633735657E-2,2.837944031E-2
2.220766012E1,4.596519470E-2,-2.767914534E-2,7.620811462E-2
2.222362081E1,-1.106370986E-1,-4.059034586E-2,-3.380327225E-1
2.223964254E1,-1.388883442E-1,1.830148697E-2,5.014419556E-2
2.225563375E1,-7.690978050E-2,6.078457832E-2,4.072828293E-1
2.227156393E1,6.645202637E-3,9.314191341E-2,4.455604553E-1
2.228758565E1,2.726729214E-2,5.792778730E-2,1.264390945E-1
2.230348531E1,2.928271890E-2,3.294062614E-2,-2.311487198E-1
2.231950704E1,-5.111128092E-2,1.057708263E-2,-4.230680466E-1
2.233549825E1,-4.891787469E-2,-3.655076027E-3,-2.288150787E-1
2.235145894E1,-2.685511112E-2,-3.137028217E-2,1.406250000E-1
2.236745016E1,-1.659333706E-2,-5.286175013E-2,3.685903549E-1
2.238344137E1,-3.176157176E-2,-8.966314793E-2,2.608079910E-1
2.239937154E1,-6.219623983E-2,-6.603151560E-2,1.721382141E-3
2.241539327E1,-4.681266844E-2,-3.499627113E-3,-1.567707062E-1
2.243135396E1,8.211344481E-3,6.299096346E-2,-4.443359375E-2
2.244734518E1,2.759507298E-2,1.207193732E-1,1.040201187E-1
2.246333639E1,3.239752352E-2,1.054463387E-1,2.260646820E-1
2.247929708E1,-4.452928901E-3,4.140752554E-2,1.611680984E-1
2.249531881E1,-4.895988107E-2,-2.849173546E-2,-1.073398590E-1
2.251121847E1,-4.310475290E-2,-6.292033195E-2,-3.899345398E-1
2.252720968E1,-4.450628161E-2,-2.529942989E-2,8.103370667E-3
2.254313985E1,-3.272692859E-2,2.780526876E-2,4.132709503E-1
2.255913106E1,2.505466342E-3,4.020279646E-2,4.514627457E-1
2.257503072E1,2.620065212E-2,3.388780355E-2,1.323175430E-1
2.259105245E1,1.411765814E-2,2.624499798E-2,-2.587280273E-1
2.260698263E1,-2.884060144E-2,-4.052579403E-3,-2.805271149E-1
2.262300436E1,-7.602164894E-2,1.277250051E-2,-6.236362457E-2
2.263890401E1,-8.218564093E-2,6.540894508E-3,1.536130905E-1
2.265492574E1,-5.744388700E-2,-2.925735712E-2,1.778545380E-1
2.267085592E1,-4.475343227E-2,-4.430615902E-2,1.179409027E-1
2.268684713E1,-3.958749771E-2,-5.333381891E-2,6.259441376E-2
2.270280782E1,-1.611587405E-2,-1.371854544E-2,1.673889160E-2
2.271882955E1,2.143333852E-2,3.806203604E-2,2.836704254E-2
2.273482076E1,1.869530976E-2,6.712502241E-2,5.921840668E-2
2.275078146E1,-1.914119720E-2,9.989303350E-2,3.507137299E-2
2.276677267E1,-5.474507809E-2,6.224370003E-2,1.819801331E-2
2.278273336E1,-9.067631513E-2,3.169602156E-2,-9.193420410E-4
2.279875509E1,-4.263706505E-2,2.128124237E-3,1.114559174E-2
2.281474630E1,-1.861260831E-2,-1.032143831E-2,9.984874725E-2
2.283064596E1,2.905081213E-2,-1.022571325E-2,1.333780289E-1
2.284663717E1,2.180291712E-2,-3.355002403E-2,6.623077393E-2
2.286256734E1,-9.004026651E-3,-2.371829748E-2,-1.052284241E-2
2.287855855E1,-8.047299087E-2,-3.113842010E-2,-2.251529694E-2
2.289451925E1,-7.322397083E-2,1.141673326E-2,1.541137695E-3
2.291051046E1,-2.792252600E-2,2.656453848E-2,2.807903290E-2
2.292650167E1,2.680613101E-2,2.001351118E-2,5.700492859E-2
2.294246236E1,2.411074936E-2,9.958922863E-3,5.473613739E-2
2.295845357E1,-1.436810195E-2,-1.081520319E-2,8.591365814E-2
2.297441427E1,-4.982323945E-2,-1.868826151E-2,1.385335922E-1
2.299040548E1,-6.052787602E-2,-1.861333847E-2,5.456542969E-2
2.300642721E1,-4.538816214E-2,3.207582235E-2,-1.179561615E-1
2.302238790E1,-1.040594280E-2,5.269479752E-2,-2.016439438E-1
2.303837911E1,-1.663546264E-2,6.770443916E-2,4.293537140E-2
2.305433980E1,-2.442790568E-2,2.771836519E-2,4.549465179E-1
2.307033102E1,-5.395741761E-2,1.489698887E-3,4.162092209E-1
2.308632223E1,-6.400510669E-2,-2.985513210E-2,-8.507537842E-2
2.310228292E1,-4.945932329E-2,-2.072250843E-2,-4.041166306E-1
2.311827413E1,-3.671289980E-2,-1.953864098E-2,-1.023445129E-1
2.313423482E1,-3.200007975E-2,4.743361473E-2,3.627605438E-1
2.315022604E1,4.492591321E-2,2.565765381E-2,-7.226467133E-2
2.316621725E1,7.886847854E-2,1.651281118E-2,9.622478485E-1
2.318214742E1,4.501268268E-3,-5.555456877E-2,-3.167657852E-1
2.319816915E1,-3.822459280E-2,-9.905427694E-2,-2.646636963E-1
2.321406881E1,-1.229325533E-1,-9.390294552E-3,-2.453784943E-1
2.323009054E1,-7.524576783E-2,6.404471397E-2,3.298759460E-1
2.324605123E1,-4.822415113E-2,1.030387878E-1,6.486825943E-1
2.326204244E1,-2.429530025E-3,1.011985540E-1,3.776178360E-1
2.327806417E1,2.165560424E-2,5.953913927E-2,-2.046775818E-1
2.329396383E1,-1.437141001E-2,1.825571060E-2,-6.056003571E-1
2.330998556E1,-5.069395900E-2,-1.380288601E-2,-4.017124176E-1
2.332597677E1,-5.997869372E-2,-1.978993416E-2,9.248256683E-2
2.334190694E1,-4.365205765E-3,-6.297838688E-2,5.074567795E-1
2.335789815E1,-1.728367805E-2,-1.000816226E-1,4.786710739E-1
2.337382833E1,-3.602817655E-2,-9.201043844E-2,1.234855652E-1
2.338985006E1,-5.664245784E-2,-5.660110712E-2,-2.221994400E-1
2.340584127E1,-3.495089710E-2,4.132342339E-2,-3.040466309E-1
2.342180196E1,-4.183769226E-3,1.225164235E-1,-5.012416840E-2
2.343779317E1,1.039990783E-2,1.637029052E-1,2.039709091E-1
2.345375387E1,1.241703331E-2,1.027944088E-1,2.591257095E-1
2.346974508E1,-5.232925713E-2,3.059560061E-2,1.989660263E-1
2.348573629E1,-5.962298810E-2,-7.289999723E-2,-2.420721054E-1
2.350172750E1,-2.767300606E-2,-6.837779284E-2,-2.302732468E-1
2.351771871E1,-2.727670968E-2,-2.439761162E-2,6.923580170E-2
2.353367940E1,-5.319401622E-3,2.590239048E-2,2.394075394E-1
2.354967062E1,2.426317334E-2,6.116718054E-2,2.488374710E-1
2.356566183E1,1.376573741E-2,5.452555418E-2,1.310167313E-1
2.358165304E1,-5.449205637E-4,2.901905775E-2,-3.960895538E-2
2.359767476E1,-4.000854492E-2,6.477475166E-3,-1.214971542E-1
2.361366598E1,-5.799256265E-2,-2.478545904E-2,-1.312398911E-1
2.362959615E1,-6.541837752E-2,-2.805542946E-2,-2.580451965E-2
2.364561788E1,-5.681499839E-2,-3.777867556E-2,1.036272049E-1
2.366157857E1,-4.477854073E-2,-1.946961880E-2,2.017412186E-1
2.367756979E1,-8.808895946E-3,5.652606487E-3,1.583118439E-1
2.369353048E1,4.955887794E-3,9.821176529E-3,4.763507843E-2
2.370952169E1,2.376034856E-3,2.153986692E-2,-9.414577484E-2
2.372551290E1,-1.700438559E-2,6.077322364E-2,-8.250045776E-2
2.374150411E1,-4.114779830E-2,6.560149789E-2,1.178741455E-3
2.375752584E1,-5.326387286E-2,5.241087079E-2,1.184339523E-1
2.377351705E1,-5.987222493E-2,4.903188348E-2,1.326112747E-1
2.378947774E1,-3.036828339E-2,6.282329559E-5,4.131317139E-2
2.380546896E1,-8.982643485E-3,-1.850092411E-2,-1.408481598E-2
2.382142965E1,-2.671867609E-3,-1.267158985E-2,-3.352737427E-2
2.383742086E1,-8.653625846E-3,-8.637368679E-3,6.678009033E-2
2.385338155E1,-2.109558880E-2,6.615728140E-3,1.095771790E-1
2.386937276E1,-3.781110048E-3,5.746573210E-3,8.523559570E-2
2.388539449E1,-4.638354480E-2,1.808273792E-2,7.281875610E-2
2.390132467E1,-4.291898012E-2,2.060049772E-2,3.405094147E-2
2.391734640E1,-2.933588624E-2,9.751081467E-3,-5.495357513E-2
2.393333761E1,-2.403590083E-2,5.796313286E-3,-1.031312943E-1
2.394926778E1,-1.626604795E-2,2.599647641E-2,-1.128349304E-1
2.396525899E1,8.283734322E-3,2.389410138E-2,7.146453857E-2
2.398121969E1,-3.819337487E-2,1.709899306E-2,3.178958893E-1
2.399724142E1,-2.920334041E-2,1.512789726E-2,3.676939011E-1
2.401323263E1,-3.473237157E-2,2.430212498E-2,1.974678040E-2
2.402922384E1,-4.240593314E-2,2.074459195E-2,-3.065567017E-1
2.404521505E1,-4.145285487E-2,2.771794796E-2,-1.632423401E-1
2.406117574E1,-6.323383749E-2,3.250196576E-2,-1.536979675E-1
2.407719747E1,1.415793598E-2,4.018989205E-2,1.002311707E-1
2.409318868E1,4.207408428E-2,2.276682854E-2,5.336284637E-1
2.410911886E1,4.833985865E-2,-3.937020898E-2,1.837711334E-1
2.412511007E1,-2.164259553E-3,-9.763062000E-2,-2.237997055E-1
2.414104024E1,-8.864496648E-2,-6.397575140E-3,-5.690631866E-1
2.415703146E1,-6.671290100E-2,-5.836486816E-3,-2.458362579E-1
2.417299215E1,-7.077844441E-2,1.090031564E-1,7.406101227E-1
2.418898336E1,-6.539788842E-2,1.043516994E-1,1.034870148E-1
2.420497457E1,4.532247782E-3,8.856669068E-2,4.045763016E-1
2.422096578E1,-1.490458846E-3,5.405576527E-2,-3.071174622E-1
2.423698751E1,-8.990556002E-3,1.834923029E-2,-2.739810944E-1
2.425297872E1,-3.236672282E-2,-1.881283522E-2,3.566741943E-3
2.426890890E1,-2.687589824E-2,-6.876771152E-2,1.949672699E-1
2.428490011E1,1.258863509E-2,-6.192064285E-2,1.612329483E-1
2.430083028E1,-2.415075898E-2,-6.739157438E-2,7.725715637E-3
2.431682149E1,-4.193767905E-2,-3.369420767E-3,-8.351135254E-2
2.433278219E1,-6.009651721E-2,6.716281176E-2,-4.697799683E-3
2.434877340E1,-2.814099193E-2,1.027112603E-1,1.172447205E-1
2.436473409E1,2.899989486E-3,1.274079084E-1,1.912546158E-1
2.438072530E1,2.887910604E-2,8.330913633E-2,9.047698975E-2
2.439674703E1,-1.507899165E-2,1.801767945E-2,-3.084182739E-3
2.441273824E1,-6.226223707E-2,-2.011018991E-2,-2.666063309E-1
2.442866842E1,-4.973779619E-2,-1.128070056E-2,-3.073663712E-1
2.444469015E1,-6.930616498E-2,6.959289312E-4,6.862640381E-2
2.446062032E1,-3.900620341E-2,2.078551054E-2,4.182367325E-1
2.447661153E1,1.238051057E-2,3.597299755E-2,3.750171661E-1
2.449257223E1,2.806727588E-2,3.588723391E-2,1.041536331E-1
2.450856344E1,1.636379957E-2,5.308810249E-2,-1.593122482E-1
2.452455465E1,-3.039298952E-2,3.617749363E-2,-2.000236511E-1
2.454051534E1,-4.462893307E-2,5.701143667E-2,-2.762889862E-2
2.455647604E1,-3.387358785E-2,5.427819118E-2,1.112461090E-1
2.457240621E1,-4.158049822E-2,1.608835906E-2,1.231966019E-1
2.458842794E1,-3.443187475E-2,-1.495391503E-2,2.019977570E-2
2.460438863E1,-3.905600309E-2,-1.652226597E-2,-1.574134827E-2
2.462041036E1,-3.401637077E-2,-1.887864619E-2,1.298141479E-2
2.463640157E1,-2.626806498E-3,3.285890073E-2,5.370426178E-2
2.465233175E1,-2.107501030E-3,4.484962672E-2,1.351232529E-1
2.466835348E1,-2.019917965E-2,4.789411277E-2,7.527732849E-2
2.468434469E1,-1.698011160E-2,6.964626163E-2,2.023983002E-2
2.470030538E1,-4.427289963E-2,5.682354420E-2,-3.480148315E-2
2.471632711E1,-4.494524002E-2,5.163462460E-2,-3.717136383E-2
2.473228780E1,-2.901421487E-2,5.529691279E-2,4.426479340E-2
2.474827901E1,-3.833860159E-3,5.916858092E-3,1.017713547E-1
2.476427022E1,7.058024406E-3,1.228513569E-2,8.027553558E-2
2.478023092E1,-3.280724585E-2,-8.896313608E-3,4.204654694E-2
2.479622213E1,-3.439639509E-2,6.174884737E-3,-9.641647339E-4
2.481215230E1,-4.533870518E-2,3.685898706E-2,2.305984497E-2
2.482817403E1,-2.192190289E-2,4.671458155E-2,6.621265411E-2
2.484416524E1,-1.178735495E-2,4.175701737E-2,8.300971985E-2
2.486012594E1,1.535764337E-2,3.595802933E-2,-2.468776703E-2
2.487608663E1,-1.509040594E-3,2.407582104E-2,-1.203908920E-1
2.489204732E1,-4.815174639E-2,1.876401156E-2,-1.730051041E-1
2.490797750E1,-5.709391832E-2,3.059193492E-2,7.125377655E-2
2.492396871E1,-1.910123229E-2,2.587679774E-2,3.849916458E-1
2.493995992E1,-2.100467682E-4,3.363890201E-2,3.133563995E-1
2.495592062E1,-3.253370523E-3,3.289767355E-2,-6.231212616E-2
2.497191183E1,-3.419017792E-2,3.929211199E-2,-2.321043015E-1
2.498781148E1,-7.503785193E-2,4.444196820E-2,-1.672897339E-1
2.500380270E1,-6.717735529E-2,2.880474925E-2,-2.534475327E-1
2.501973287E1,4.712980986E-2,8.694188297E-2,3.211688995E-1
2.503575460E1,8.178102970E-2,5.329406261E-2,5.895338058E-1
2.505174581E1,5.343443155E-2,-2.454368770E-2,-2.780246735E-2
2.506767599E1,-1.726770401E-2,-3.866198659E-2,-4.824571609E-1
2.508366720E1,-7.473453879E-2,-2.163633704E-2,-3.172044754E-1
2.509956686E1,-7.028822601E-2,4.742962122E-2,1.832284927E-1
2.511555807E1,-4.833287001E-2,8.662505448E-2,9.236621857E-2
2.513148824E1,1.270154119E-2,7.354849577E-2,7.270193100E-1
2.514738790E1,-1.188743114E-2,1.273552328E-1,-3.213376999E-1
2.516337911E1,-5.542486906E-3,8.896440268E-4,-1.452159882E-2
2.517933980E1,-4.972761869E-2,3.891210258E-2,-1.722202301E-1
2.519536153E1,-7.676284015E-2,-3.512506187E-2,-1.432838440E-1
2.521135274E1,-2.451223135E-2,9.124934673E-3,2.447528839E-1
2.522734396E1,3.582239151E-4,-4.681150615E-2,2.114820480E-1
2.524336568E1,-1.971980929E-2,-3.743635118E-2,-1.561927795E-2
2.525932638E1,-5.187901855E-2,1.977202296E-2,-9.426116943E-2
2.527531759E1,-5.085593462E-2,6.548812985E-2,-4.846096039E-2
2.529121725E1,-4.179108143E-2,1.176457107E-1,6.191444397E-2
2.530723897E1,2.316439152E-2,1.210982203E-1,1.411714554E-1
2.532316915E1,2.425763011E-2,7.673755288E-2,1.702804565E-1
2.533916036E1,-1.935333014E-2,1.881781220E-2,-3.041267395E-2
2.535509054E1,-3.756925464E-2,-1.739427447E-2,-2.743206024E-1
2.537108175E1,-1.689010859E-2,-2.304366231E-2,-2.215089798E-1
2.538707296E1,-3.579202294E-2,2.794033289E-2,6.105136871E-2
2.540300313E1,-2.564996481E-2,4.807204008E-2,2.431182861E-1
2.541902486E1,-2.434477210E-2,5.645513535E-2,2.482337952E-1
2.543498556E1,1.022163033E-2,5.942976475E-2,7.878494263E-2
2.545100729E1,1.443406940E-2,5.183562636E-2,-1.097068787E-1
2.546693746E1,-3.021115065E-2,7.240593433E-2,-9.480190277E-2
2.548292867E1,-3.590878844E-2,4.673221707E-2,2.767086029E-2
2.549891988E1,-5.939647555E-2,2.749970555E-2,7.342147827E-2
2.551488058E1,-3.652864695E-2,1.483601332E-2,1.861381531E-2
2.553087179E1,-2.950623631E-2,9.035557508E-3,-3.620719910E-2
2.554683248E1,-2.322804928E-2,1.079970598E-2,-3.355598450E-2
2.556285421E1,-2.061122656E-2,1.675197482E-2,9.127235413E-2
2.557881490E1,-2.251178026E-2,2.083402872E-2,7.970809937E-2
2.559483663E1,-9.085953236E-3,4.034525156E-2,2.507877350E-2
2.561082784E1,-1.931339502E-2,4.346558452E-2,-2.717208862E-2
2.562675802E1,-5.870732665E-2,5.575555563E-2,-6.033992767E-2
2.564274923E1,-5.071863532E-2,5.865624547E-2,-9.808540344E-3
2.565867940E1,-3.781411052E-2,5.765965581E-2,7.419872284E-2
2.567470113E1,-4.190945625E-2,4.087615013E-2,1.008224487E-1
2.569066183E1,-1.012882590E-2,4.098808765E-2,1.060094833E-1
2.570665304E1,-1.853451133E-2,2.077889442E-2,5.856895447E-2
2.572264425E1,2.188068628E-2,2.475509048E-2,8.695602417E-3
2.573860494E1,7.034242153E-4,3.078040481E-2,-3.650951385E-2
2.575459615E1,-1.601305604E-2,2.953809500E-2,-7.597923279E-3
2.577055684E1,-4.453518987E-2,4.855024815E-2,5.238056183E-2
2.578651754E1,-4.207369685E-2,4.299700260E-2,4.056930542E-2
2.580247823E1,-3.030928969E-2,2.219778299E-2,-7.174301147E-2
2.581849996E1,-1.643264294E-2,1.955747604E-2,-8.355998993E-2
2.583443014E1,-4.609405994E-3,2.345108986E-2,2.662563324E-2
2.585042135E1,3.620445728E-3,5.021858215E-2,2.638015747E-1
2.586632101E1,-2.237549424E-2,4.780656099E-2,2.498893738E-1
2.588231222E1,-5.466890335E-2,3.892278671E-2,-1.038045883E-1
2.589827291E1,-6.916797161E-2,3.952568769E-2,-2.325954437E-1
2.591426412E1,-6.124675274E-2,6.078892946E-2,-8.873653412E-2
2.593019430E1,-5.866494775E-2,5.933487415E-2,-1.463880539E-1
2.594621603E1,4.898363352E-2,8.038485050E-2,2.028026581E-1
2.596217672E1,9.057739377E-2,5.078279972E-2,3.704547882E-1
2.597816793E1,5.610972643E-2,1.307761669E-2,7.018089294E-3
2.599406759E1,-4.673665762E-2,-4.537475109E-2,-3.205385208E-1
2.601002828E1,-1.172266006E-1,-2.737116814E-2,-2.702445984E-1
2.602595846E1,-9.023863077E-2,4.082578421E-2,7.664775848E-2
2.604194967E1,-1.486253738E-2,9.251022339E-2,3.757591248E-1
2.605791036E1,1.733934879E-2,1.033504605E-1,3.995494843E-1
2.607393209E1,2.159270644E-2,9.734386206E-2,8.869647980E-2
2.608992330E1,-3.604409099E-2,5.720019341E-2,-1.860799789E-1
2.610585348E1,-6.636628509E-2,5.572545528E-2,-2.073001862E-1
2.612184469E1,-7.347244024E-2,-2.746289968E-2,-6.192779541E-1
2.613780538E1,-1.773408055E-2,1.746231318E-2,3.546304703E-1
2.615382711E1,-2.595335245E-3,-1.216822863E-2,-3.546953201E-1
2.616981832E1,-1.452282071E-2,-6.037136912E-2,5.210771561E-1
2.618580953E1,-6.285753846E-2,2.321541309E-3,-2.142066956E-1
2.620180074E1,-6.983587146E-2,-1.735287905E-2,8.496189117E-2
2.621776144E1,-4.382768273E-2,8.805024624E-2,9.206581116E-2
2.623375265E1,-7.351249456E-3,1.093762517E-1,5.126953125E-2
2.624968282E1,5.901017785E-2,8.748972416E-2,5.361938477E-2
2.626570455E1,-1.923382282E-3,3.215134144E-2,-1.480102539E-3
2.628166524E1,-2.606764436E-2,-2.243137360E-2,-1.811485291E-1
2.629765646E1,-5.217230320E-2,-2.091526985E-2,-1.957283020E-1
2.631364767E1,-5.856606364E-2,1.835078001E-2,8.414840698E-2
2.632957784E1,-5.536016822E-2,7.776981592E-2,3.378887177E-1
2.634559957E1,1.590397954E-2,1.100127101E-1,2.951297760E-1
2.636152975E1,4.056960344E-2,1.094752550E-1,5.874347687E-2
2.637755147E1,1.846921444E-2,7.328736782E-2,-1.512584686E-1
2.639345113E1,-3.383928537E-2,5.359190702E-2,-2.059574127E-1
2.640944234E1,-6.201776862E-2,2.219915390E-2,-5.517387390E-2
2.642537252E1,-7.254981995E-2,-1.539790630E-2,1.049690247E-1
2.644139425E1,1.615196466E-3,-4.832923412E-3,1.694288254E-1
2.645738546E1,2.418974042E-2,-2.906304598E-2,9.518814087E-2
2.647334615E1,2.077829838E-2,-3.663253784E-2,-1.005554199E-2
2.648933736E1,-3.141778708E-2,-2.941489220E-2,-3.867340088E-2
2.650529806E1,-4.834210873E-2,2.271229029E-2,-5.539608002E-2
2.652128927E1,-4.622364044E-2,4.143857956E-2,-2.197551727E-2
2.653724996E1,-4.139798880E-2,6.398683786E-2,6.163501740E-2
2.655327169E1,-1.189437509E-2,6.259804964E-2,9.494018555E-2
2.656926290E1,-1.937675476E-2,5.301976204E-2,2.769756317E-2
2.658516256E1,-1.637136936E-2,2.455341816E-2,-4.677295685E-2
2.660115377E1,-4.232954979E-2,-1.982152462E-3,-1.476726532E-1
2.661708394E1,-4.332306981E-2,-2.259767056E-2,-1.050558090E-1
2.663310567E1,-4.692628980E-2,-1.443767548E-2,1.885414124E-2
2.664909688E1,-8.406817913E-3,3.172105551E-2,2.456912994E-1
2.666502706E1,-1.559075713E-2,8.284220099E-2,3.291234970E-1
2.668098775E1,-4.284703732E-2,1.132422686E-1,1.302719116E-1
2.669694845E1,-3.943884373E-2,9.720954299E-2,-9.257793427E-2
2.671297018E1,-3.170922399E-2,1.374014020E-1,-5.724239349E-2
2.672890035E1,-5.094406009E-2,9.224644303E-2,-2.425098419E-1
2.674492208E1,-3.864595294E-2,-1.183599234E-2,-5.168771744E-1
2.676091329E1,2.179458737E-2,-3.304365277E-2,-8.692741394E-3
2.677687398E1,8.271026611E-2,-9.203645587E-2,5.381031036E-1
2.679283468E1,9.574913979E-2,-1.505202204E-1,3.982772827E-1
2.680876485E1,5.362257361E-2,-1.385637224E-1,3.125381470E-2
2.682478658E1,-3.448429704E-2,-7.019492984E-2,-2.233171463E-1
2.684074728E1,-8.306506276E-2,4.996904731E-2,-2.001838684E-1
2.685673849E1,-1.182437539E-1,1.382904351E-1,6.723308563E-2
2.687263814E1,-7.565538585E-2,2.025857419E-1,3.755235672E-1
2.688862936E1,-2.961164713E-2,1.701051593E-1,3.415594101E-1
2.690462057E1,3.160887957E-2,4.690326750E-2,-1.198768616E-3
2.692055074E1,3.283381462E-2,-4.224717617E-2,-3.128213882E-1
2.693657247E1,-1.164618134E-2,-1.301256120E-1,-3.778762817E-1
2.695250265E1,-3.465509415E-2,-1.521466076E-1,-8.139896393E-2
2.696852438E1,-5.560557544E-2,-1.439258009E-1,2.462816238E-1
2.698445455E1,-4.713822901E-2,-1.049086154E-1,3.849372864E-1
2.700044576E1,-4.740317166E-2,-4.986299202E-2,3.225555420E-1
2.701640646E1,4.264295101E-3,9.662337601E-3,8.061218262E-2
2.703242818E1,1.621603966E-3,4.472379386E-2,-1.852903366E-1
2.704844991E1,-7.517695427E-3,7.118748128E-2,-2.237138748E-1
2.706438009E1,-5.288791656E-2,5.559386685E-2,-5.377101898E-2
2.708037130E1,-7.150556147E-2,6.506470963E-3,1.425218582E-1
2.709636251E1,-2.109500766E-2,-3.663441539E-2,1.207351685E-3
2.711232320E1,-2.560861409E-2,2.427280694E-2,-2.995109558E-2
2.712831441E1,2.514675260E-2,-9.479190409E-2,3.723211288E-1
2.714424459E1,-4.040002823E-3,4.585169256E-3,3.963470459E-1
2.716023580E1,-1.882225275E-3,-4.661718011E-2,-7.762432098E-2
2.717616598E1,-8.894234896E-3,8.054773510E-2,2.025690079E-1
2.719215719E1,-2.541948855E-2,2.664228529E-2,-4.222297668E-1
2.720811788E1,7.897615433E-6,1.456727833E-2,3.751163483E-1
2.722410909E1,-3.325442970E-2,-1.415854692E-2,8.069324493E-2
2.724010030E1,-5.215708911E-2,-5.811575055E-2,1.094903946E-1
2.725606100E1,-6.452250481E-2,-9.053407609E-2,1.142120361E-2
2.727205221E1,-6.512895226E-2,-9.851078689E-2,-1.719379425E-2
2.728801290E1,-2.926774323E-2,-8.362703025E-2,7.631683350E-2
2.730400411E1,-1.898407936E-5,-3.861050308E-2,1.123514175E-1
2.731999532E1,1.720665395E-2,-1.156541705E-2,-7.188796997E-2
2.733595602E1,-1.040682197E-3,1.207812130E-2,-1.961851120E-1
2.735194723E1,-3.158275783E-2,4.455821216E-2,-6.180000305E-2
2.736787740E1,-4.492679238E-2,1.604820788E-2,2.378282547E-1
2.738389913E1,-2.459292114E-2,2.186521888E-3,3.458347321E-1
2.739992086E1,-5.014069378E-2,-2.431795001E-2,1.352396011E-1
2.741585104E1,-3.289330006E-2,-4.392968118E-2,-1.280860901E-1
2.743184225E1,-3.089372814E-2,-4.033285379E-2,-1.590499878E-1
2.744780294E1,-6.330494583E-2,-5.931505561E-2,-2.831974030E-1
2.746379415E1,3.755764663E-2,-8.748859167E-3,3.816127777E-2
2.747978536E1,5.909688771E-2,-9.785175323E-3,4.505052567E-1
2.749571554E1,4.286307096E-2,-6.033176184E-2,1.659317017E-1
2.751173726E1,-1.263792813E-2,-6.329911947E-2,-1.906003952E-1
2.752766744E1,-8.117757738E-2,-5.803838372E-2,-2.286806107E-1
2.754368917E1,-8.587814867E-2,-2.515849471E-2,-8.306503296E-4
2.755968038E1,-6.438262761E-2,2.053466439E-2,3.588113785E-1
2.757564107E1,-2.333928645E-2,1.769059896E-2,5.410661697E-1
2.759163229E1,2.198670805E-2,-2.368956804E-3,2.033672333E-1
2.760759298E1,2.907937765E-2,-2.340322733E-2,-1.967601776E-1
2.762358419E1,-8.778095245E-3,-3.078889847E-2,-3.978652954E-1
2.763954488E1,-5.947685242E-2,-2.243581414E-2,-2.587766647E-1
2.765553609E1,-8.532097936E-2,-3.537455201E-2,2.039375305E-1
2.767152730E1,-6.300449371E-2,-4.114988446E-2,5.229234695E-1
2.768745748E1,-3.152297437E-2,-8.000758290E-2,2.047481537E-1
2.770341817E1,-2.803386748E-2,-7.697194815E-2,-2.499589920E-1
2.771937887E1,-2.803941071E-2,-6.907874346E-2,-3.380212784E-1
2.773537008E1,-1.790007949E-2,-1.164758205E-2,-8.811473846E-2
2.775133077E1,-6.175041199E-5,1.849174500E-2,2.240848541E-1
2.776732198E1,1.198299229E-2,-4.178613424E-3,2.703113556E-1
2.778325216E1,6.513446569E-3,-3.713339567E-2,1.605758667E-1
2.779924337E1,-1.224137843E-2,-1.140183508E-1,-2.677087784E-1
2.781520406E1,-2.426564693E-2,-1.076224446E-1,-2.073411942E-1
2.783122579E1,-5.817475915E-2,-6.284987926E-2,2.291917801E-1
2.784721700E1,-3.109362721E-2,1.195424795E-2,4.213809967E-1
2.786314718E1,7.655471563E-4,4.415315390E-2,2.493553162E-1
2.787916891E1,3.336101770E-3,6.933566928E-2,-1.334686279E-1
2.789516012E1,-2.865135670E-2,3.794384003E-2,-2.622184753E-1
2.791112081E1,-2.497285604E-2,1.628994942E-2,-8.891963959E-2
2.792711202E1,-5.373507738E-4,-2.323454618E-2,9.656333923E-2
2.794304220E1,-1.605530083E-2,-5.713981390E-2,2.340908051E-1
2.795903341E1,-3.826460242E-2,-1.048086882E-1,1.606893539E-1
2.797499410E1,-5.147343874E-2,-1.070985198E-1,-1.067667007E-1
2.799101583E1,-4.358394444E-2,-9.078669548E-2,-1.609430313E-1
2.800700704E1,-1.834514737E-2,-4.240864515E-2,-3.766345978E-2
2.802290670E1,1.215296984E-2,-2.005165815E-2,1.383209229E-2
2.803889791E1,3.745989501E-2,-1.437008381E-3,8.916378021E-2
2.805482809E1,-1.258797944E-2,4.077851772E-3,3.270444870E-1
2.807084981E1,-8.296076953E-2,5.193173885E-3,3.561735153E-1
2.808684103E1,-1.199699715E-1,-8.574783802E-3,-2.209472656E-2
2.810277120E1,-4.951784015E-2,2.695083618E-3,-3.019866943E-1
2.811876241E1,-2.630338073E-2,7.712841034E-5,-6.122179031E-1
2.813469259E1,2.605037391E-2,-1.921689510E-2,6.716156006E-2
2.815068380E1,6.245762110E-3,2.020460367E-2,-1.843042374E-1
2.816664449E1,6.717392802E-2,-7.283204794E-2,5.237016678E-1
2.818263570E1,2.388462424E-2,-4.500830173E-2,2.036027908E-1
2.819862691E1,-5.526044965E-2,-1.594015360E-1,-3.251714706E-1
2.821458761E1,-9.182611108E-2,-9.895420074E-2,-3.219051361E-1
2.823057882E1,-7.464405894E-2,-9.513080120E-3,1.104583740E-1
2.824647848E1,-4.757811129E-2,5.663609505E-2,5.451374054E-1
2.826250021E1,-4.859131575E-2,4.624634981E-2,4.521350861E-1
2.827846090E1,1.146696508E-2,2.171903849E-2,-6.070327759E-2
2.829445211E1,4.358783364E-3,-6.698608398E-3,-3.125362396E-1
2.831044332E1,-4.096004367E-2,-3.420114517E-2,-2.979021072E-1
2.832643453E1,-6.414155662E-2,-5.042260885E-2,-6.217384338E-2
2.834245626E1,-5.044241250E-2,-6.789177656E-2,7.096958160E-2
2.835841695E1,-4.681439698E-2,-7.887530327E-2,8.916282654E-2
2.837440816E1,-3.736054897E-2,-8.166581392E-2,1.165809631E-1
2.839036886E1,-2.989046276E-2,-5.438721180E-2,2.128829956E-1
2.840629903E1,-2.710226178E-2,-2.936404943E-2,2.845773697E-1
2.842232076E1,-7.205551118E-2,-3.179550171E-2,7.319927216E-2
2.843831197E1,-8.963912725E-3,-6.436586380E-3,-9.255504608E-2
2.845427267E1,4.634450376E-2,2.288198471E-2,-7.335186005E-2
2.847026388E1,-1.976366341E-2,-8.399128914E-3,-1.110200882E-1
2.848619405E1,-3.557005525E-2,-2.272331715E-2,-1.264791489E-1
2.850221578E1,-8.072921634E-2,-4.182255268E-2,6.681156158E-2
2.851817647E1,-6.154840440E-2,-3.000980616E-2,1.993703842E-1
2.853416769E1,-3.906492889E-2,-1.209902763E-2,2.803783417E-1
2.855015890E1,1.314815879E-2,-3.401452303E-2,1.970777512E-1
2.856608907E1,1.060487330E-2,-4.062932730E-2,-1.581192017E-3
2.858211080E1,-2.821087837E-4,-4.248636961E-2,-1.212568283E-1
2.859807149E1,-1.842771471E-2,-4.462462664E-2,-1.636590958E-1
2.861406271E1,-6.878241152E-2,-3.585958481E-2,-8.355045319E-2
2.862996236E1,-7.840140164E-2,-2.089715004E-2,1.667079926E-1
2.864595357E1,-7.803042978E-2,-4.354023933E-2,1.890954971E-1
2.866194479E1,-2.368868887E-2,-8.240687847E-2,9.374523163E-2
2.867790548E1,-3.042103350E-2,-5.501067638E-2,1.269912720E-2
2.869389669E1,-4.617496580E-2,-2.315759659E-3,-1.565408707E-1
2.870988790E1,-1.807463169E-2,2.053046227E-2,-1.192321777E-1
2.872581808E1,-1.798683405E-2,3.359138966E-2,5.505275726E-2
2.874183980E1,2.130866051E-3,4.960179329E-3,1.669988632E-1
2.875783102E1,-2.290728688E-2,-3.150260448E-2,7.009792328E-2
2.877379171E1,-1.200093329E-2,-6.453073025E-2,-1.397085190E-1
2.878975240E1,-3.795636445E-2,-6.256675720E-2,-2.398586273E-2
2.880574361E1,-7.040447742E-2,-5.733764172E-2,4.336519241E-1
2.882176534E1,-6.159064174E-2,-4.883313179E-2,5.548276901E-1
2.883772604E1,-3.394925594E-2,-5.027949810E-2,7.395267487E-2
2.885371725E1,1.851193607E-2,-3.591120243E-2,-4.352102280E-1
2.886970846E1,-2.905097604E-2,1.582145691E-2,-5.236015320E-1
2.888566915E1,-7.831396908E-2,5.815720558E-2,-4.308185577E-1
2.890169088E1,-5.756035447E-3,9.080672264E-2,3.546485901E-1
2.891768209E1,4.878413677E-2,-3.241455555E-2,7.820348740E-1
2.893364278E1,6.322282553E-2,-1.255121231E-1,2.830476761E-1
2.894966451E1,-4.974317551E-2,-1.911144257E-1,-3.266954422E-1
2.896562521E1,-1.087007225E-1,-1.251943111E-1,-3.082227707E-1
2.898161642E1,-7.720495015E-2,3.307020664E-2,4.437265396E-1
2.899760763E1,-1.808233559E-2,9.806740284E-2,7.565326691E-1
2.901356832E1,-5.347624421E-3,1.428644061E-1,1.723022461E-1
2.902955953E1,8.092969656E-3,8.517646790E-2,-5.674610138E-1
2.904552022E1,-2.863360941E-2,4.108655453E-2,-6.638746262E-1
2.906151144E1,-6.547203660E-2,-9.253501892E-3,-2.412385941E-1
2.907747213E1,-2.633720636E-2,-6.570553780E-2,2.110967636E-1
2.909346334E1,1.114934683E-2,-1.159169674E-1,5.096311569E-1
2.910945455E1,1.524512470E-2,-1.502237320E-1,4.284200668E-1
2.912541524E1,-1.310253143E-2,-1.651513577E-1,-1.590299606E-1
2.914140646E1,-8.288249373E-3,-6.010365486E-2,3.357429504E-1
2.915739767E1,-8.623522520E-2,4.041361809E-2,-6.557416916E-1
2.917338888E1,1.907379925E-2,1.424829364E-1,-1.052122116E-1
2.918941061E1,6.781056523E-3,2.209968567E-1,-8.348846436E-2
2.920540182E1,9.380128980E-2,1.171765327E-1,4.237480164E-1
2.922136251E1,3.442932665E-2,1.165425777E-2,1.215658188E-1
2.923735372E1,-1.770220697E-2,-6.481873989E-2,3.699302673E-2
2.925331441E1,-8.005955815E-2,-9.784758091E-2,-1.378726959E-2
2.926930562E1,-5.976429582E-2,-3.728783131E-2,3.389549255E-2
2.928526632E1,-2.044649422E-2,5.412137508E-2,2.013006210E-1
2.930125753E1,5.685234070E-2,1.052344441E-1,1.790990829E-1
2.931724874E1,6.781072915E-2,8.081257343E-2,1.588907242E-1
2.933320943E1,2.433612943E-2,2.758026123E-2,-1.534194946E-1
2.934920064E1,-3.340053558E-2,-3.056740761E-2,-4.266767502E-1
2.936516134E1,-5.810564011E-2,-5.643272400E-2,-3.013610840E-1
2.938115255E1,-4.131017625E-2,-5.042815208E-2,2.554922104E-1
2.939714376E1,1.995563507E-4,-2.126920223E-2,5.696783066E-1
2.941310445E1,9.220287204E-3,-3.433167934E-2,4.105300903E-1
2.942909566E1,1.213429868E-2,-2.300012112E-2,2.061843872E-2
2.944505636E1,2.766439319E-2,-2.682864666E-3,-2.757053375E-1
2.946104757E1,-7.566809654E-4,3.448879719E-2,-3.218040466E-1
2.947706930E1,-2.640570700E-2,8.743184805E-2,-5.554485321E-2
2.949302999E1,-2.363635600E-2,1.064812541E-1,2.178688049E-1
2.950905172E1,-4.681449383E-2,7.377105951E-2,2.067089081E-1
2.952504293E1,-2.537792921E-2,2.665984631E-2,5.859851837E-2
2.954100362E1,-1.454263926E-2,-1.668047905E-2,1.764297485E-2
2.955699483E1,-1.100055873E-2,-5.364096165E-2,2.927875519E-2
2.957295553E1,9.716093540E-3,-3.836679459E-2,5.283451080E-2
2.958894674E1,6.435722113E-3,-1.945453882E-2,8.585262299E-2
2.960487691E1,-9.052827954E-3,9.754180908E-3,1.474370956E-1
2.962089864E1,-2.526289225E-2,6.391823292E-3,1.681518555E-1
2.963688985E1,-2.470053732E-2,2.631723881E-3,6.831169128E-3
2.965285055E1,-9.370297194E-4,1.956218481E-2,-1.899890900E-1
2.966887228E1,7.952362299E-3,1.253741980E-2,-2.280311584E-1
2.968483297E1,-1.349847019E-2,3.375530243E-2,-4.510784149E-2
2.970082418E1,-1.256619394E-2,1.738864183E-2,1.666154861E-1
2.971681539E1,-5.656644702E-3,1.251351833E-2,2.915973663E-1
2.973274557E1,-1.829607785E-2,-1.803892851E-2,2.001991272E-1
2.974873678E1,-2.123002708E-2,-1.802349091E-2,7.713699341E-2
2.976466695E1,-3.017693758E-3,-1.606303453E-2,-1.247692108E-2
2.978068868E1,8.700862527E-3,2.258419991E-2,-7.544136047E-2
2.979667989E1,-1.741850376E-2,5.370181799E-2,-3.498268127E-2
2.981264059E1,-8.370503783E-3,7.438683510E-2,5.376434326E-2
2.982863180E1,-3.389453888E-2,5.575078726E-2,-1.778697968E-2
2.984456197E1,-2.421925962E-2,1.438593864E-2,-1.323003769E-1
2.986058370E1,-1.058876514E-4,-1.622575521E-2,-2.160072327E-2
2.987657491E1,1.311065257E-2,-8.928477764E-3,3.593492508E-1
2.989253561E1,-3.622432053E-2,-5.821883678E-3,5.507001877E-1
2.990846578E1,-3.645533323E-2,-2.513992786E-2,7.300853729E-2
2.992448751E1,6.715029478E-3,-1.116693020E-2,-4.549331665E-1
2.994044820E1,2.886202931E-2,5.018037558E-2,-4.286546707E-1
2.995637838E1,-2.908751369E-2,7.150810957E-2,1.523971558E-2
2.997236959E1,-9.613212943E-2,6.955224276E-2,2.628774643E-1
2.998833028E1,-5.427017808E-3,5.967384577E-2,4.763717651E-1
3.000429098E1,6.897321343E-2,-4.495561123E-2,3.268079758E-1
3.002025167E1,1.021534801E-1,-7.909238338E-2,-2.770156860E-1
3.003618184E1,-5.735188723E-3,-6.828624010E-2,-7.297821045E-1
3.005214254E1,-1.042243168E-1,2.486616373E-2,-2.232465744E-1
3.006816427E1,-7.943992317E-2,1.102228761E-1,7.481880188E-1
3.008418600E1,-3.338997066E-2,1.326757073E-1,1.100259781E0
3.010011617E1,6.652370095E-3,6.404709816E-2,4.058761597E-1
3.011610738E1,-1.209993660E-2,1.527535915E-2,-5.644550323E-1
3.013209859E1,-9.452983737E-3,-6.359297037E-2,-1.212243080E0
3.014805929E1,-9.469371289E-2,2.212136984E-2,-3.133020401E-1
3.016408102E1,-8.052525669E-2,-3.697288036E-2,-6.187248230E-2
3.018010274E1,1.630191505E-2,-4.101514816E-2,9.837512970E-1
3.019603292E1,-1.960542798E-2,-4.880893230E-2,1.603240967E-1
3.021205465E1,-2.169391513E-2,-5.288565159E-2,4.752359390E-1
3.022798482E1,-2.984912694E-2,-5.069702864E-2,-1.029863358E-1
3.024400655E1,-3.733874857E-2,4.051756859E-2,-1.156711578E-1
3.025993673E1,4.658818245E-3,1.590594053E-1,-3.511428833E-3
3.027592794E1,1.373785734E-2,1.624516249E-1,1.349544525E-1
3.029191915E1,2.732007205E-2,1.353856325E-1,1.578845978E-1
3.030791036E1,1.464694738E-3,-5.475819111E-3,-1.396465302E-1
3.032390157E1,-1.845657825E-2,-6.875050068E-2,-3.118867874E-1
3.033983175E1,-2.856093645E-2,-8.726245165E-2,8.345317841E-2
3.035582296E1,-2.644240856E-3,-2.650028467E-2,3.765506744E-1
3.037172262E1,4.428267479E-3,2.392715216E-2,4.290103912E-1
3.038774434E1,6.586432457E-3,1.576018333E-2,1.287374496E-1
3.040373556E1,6.547123194E-3,4.196310043E-2,-2.770147324E-1
3.041966573E1,1.260997355E-2,1.108068228E-2,-3.181180954E-1
3.043568746E1,-1.994176209E-2,-5.421221256E-3,-8.538627625E-2
3.045161764E1,-8.113905787E-3,-2.427518368E-3,1.308221817E-1
3.046763936E1,-3.137683868E-2,-3.597462177E-2,2.581510544E-1
3.048363058E1,-4.299584031E-2,-6.475979090E-2,2.028465271E-1
3.049956075E1,-3.837639093E-2,-6.682503223E-2,1.067066193E-2
3.051555196E1,-1.300513744E-2,-2.521175146E-2,-3.777885437E-2
3.053148214E1,9.580403566E-3,3.883051872E-2,-4.760837555E-2
3.054747335E1,3.507608175E-2,7.727360725E-2,-4.997539520E-2
3.056343404E1,8.271008730E-3,6.548708677E-2,6.040668488E-2
3.057942525E1,-2.774861455E-2,4.847776890E-2,1.827116013E-1
3.059541646E1,-6.063570082E-2,1.120007038E-2,1.682081223E-1
3.061137716E1,-2.386008203E-2,-2.686810493E-2,8.876228333E-2
3.062736837E1,3.314082325E-2,-2.476501465E-2,-4.337882996E-2
3.064332906E1,1.260431111E-2,9.157657623E-4,-7.475757599E-2
3.065932027E1,-6.135702133E-4,1.732897758E-2,6.636619568E-3
3.067528097E1,-1.276329160E-2,8.306503296E-3,9.527778625E-2
3.069121114E1,-3.587006032E-2,-6.787002087E-3,1.430788040E-1
3.070720235E1,-3.425689042E-2,-2.621662617E-2,3.745937347E-2
3.072310201E1,-8.966132998E-3,-4.754614830E-2,-8.965682983E-2
3.073912374E1,4.170757532E-2,-8.905589581E-3,-8.245086670E-2
3.075511495E1,7.156208158E-3,-4.247009754E-3,4.227256775E-2
3.077107564E1,-2.072951198E-2,1.816183329E-2,1.381483078E-1
3.078703634E1,-4.867897928E-2,3.253841400E-2,1.690864563E-1
3.080302755E1,-4.715542495E-2,1.227855682E-2,9.674263000E-2
3.081901876E1,-3.039686382E-2,5.767643452E-3,5.174636841E-3
3.083504049E1,1.075045764E-2,3.502547741E-3,-1.053848267E-1
3.085100118E1,3.608955443E-2,-2.441167831E-3,-1.437759399E-1
3.086699239E1,1.275908947E-2,3.825545311E-2,7.306098938E-3
3.088295309E1,-1.354122162E-2,1.417517662E-2,2.732648849E-1
3.089894430E1,-7.536112517E-2,-3.543198109E-3,3.711175919E-1
3.091493551E1,-5.645473301E-2,-8.900880814E-3,6.658267975E-2
3.093092672E1,-7.800713181E-3,-1.304280758E-2,-2.845659256E-1
3.094694845E1,4.168246686E-2,8.462786674E-3,-1.963834763E-1
3.096293966E1,-2.203483880E-2,1.612067223E-2,-1.123094559E-1
3.097886983E1,8.538335562E-3,3.596746922E-2,6.316471100E-2
3.099486104E1,8.278802037E-3,1.837146282E-2,4.946355820E-1
3.101079122E1,6.091994047E-2,-3.352206945E-2,3.482379913E-1
3.102678243E1,4.713840783E-2,-8.033674955E-2,-2.248439789E-1
3.104271261E1,-3.540150821E-2,-6.546479464E-2,-6.489648819E-1
3.105873434E1,-6.931395829E-2,2.695024014E-2,-1.884107590E-1
3.107472555E1,-3.349807858E-2,8.775836229E-2,5.768594742E-1
3.109068624E1,-2.456712723E-2,1.021943688E-1,8.406677246E-1
3.110667745E1,-6.984278560E-3,5.198383331E-2,3.101930618E-1
3.112257711E1,-1.886850595E-2,1.854610443E-2,-8.027868271E-1
3.113859884E1,-1.426021755E-2,-5.134665966E-2,-6.626291275E-1
3.115459005E1,-6.918832660E-2,2.316546440E-2,-3.318014145E-1
3.117055074E1,-3.762140870E-3,-6.252944469E-2,2.249546051E-1
3.118654195E1,4.471629858E-3,-4.433184862E-2,8.101234436E-1
3.120244161E1,-4.758238792E-3,-1.169130206E-1,6.784820557E-2
3.121843282E1,-1.835134625E-2,-6.726819277E-2,8.131217957E-2
3.123436300E1,-2.311545610E-2,-2.362811565E-2,-1.614818573E-1
3.125038473E1,-2.125212550E-2,5.208706856E-2,-1.356172562E-1
3.126640646E1,-3.843277693E-3,1.121873260E-1,-2.787113190E-2
3.128233663E1,-4.075878859E-2,1.266145706E-1,1.638460159E-1
3.129835836E1,-1.335920393E-2,5.446922779E-2,2.284412384E-1
3.131431905E1,-2.220986784E-2,-3.494274616E-2,-6.872653961E-2
3.133031026E1,-6.975114346E-3,-4.797142744E-2,-1.693887711E-1
3.134630147E1,4.083737731E-3,-5.824589729E-2,-5.654525757E-2
3.136223165E1,-2.684548497E-2,-2.708673477E-3,1.378288269E-1
3.137825338E1,-3.287653625E-2,4.124289751E-2,3.462209702E-1
3.139424459E1,-1.505658031E-2,6.200170517E-2,2.593793869E-1
3.141020528E1,1.925636828E-2,3.251016140E-2,4.556655884E-3
3.142619649E1,2.971830964E-2,4.076898098E-3,-2.164468765E-1
3.144215719E1,-1.359805465E-2,-2.833634615E-2,-2.237310410E-1
3.145814840E1,-5.333238840E-2,-1.197528839E-2,-4.123115540E-2
3.147410909E1,-6.672880054E-2,-1.840800047E-2,1.844644547E-1
3.149010030E1,-3.488135338E-2,-2.758806944E-2,2.445392609E-1
3.150609151E1,-8.335545659E-3,-2.844089270E-2,1.387186050E-1
3.152205221E1,1.049092412E-2,-2.838885784E-2,3.019618988E-2
3.153804342E1,2.997900546E-2,-1.778298616E-2,-9.500885010E-2
3.155403463E1,6.617367268E-3,2.671307325E-2,-1.144495010E-1
3.156999532E1,-1.222851872E-2,6.299722195E-2,-5.676937103E-2
3.158598653E1,-4.622647166E-2,8.268511295E-2,1.016912460E-1
3.160194723E1,-4.376876354E-2,5.765885115E-2,1.833972931E-1
3.161793844E1,-4.045313597E-2,3.952378035E-2,1.401710510E-1
