"Time (s)","Linear Acceleration x (m/s^2)","Linear Acceleration y (m/s^2)","Linear Acceleration z (m/s^2)"
3.337639100E-2,-1.482162625E-4,-3.298461437E-3,4.715156555E-2
4.341662100E-2,-1.707412302E-4,3.453493118E-4,-7.614135742E-3
5.345685000E-2,1.381151378E-4,1.543939114E-3,-2.493667603E-2
6.349707900E-2,-7.248409092E-4,1.648187637E-3,-1.365566254E-2
7.353730800E-2,8.978787810E-5,-7.809758186E-3,1.131544113E-1
8.357753800E-2,2.860091627E-4,-1.315057278E-2,1.976375580E-1
9.361776700E-2,-3.087825514E-2,-8.796691895E-3,2.740583420E-1
1.036579970E-1,-3.137309477E-2,3.100961447E-2,2.401552200E-1
1.136982260E-1,-6.829611957E-4,-9.652554989E-3,1.536254883E-1
1.237689730E-1,8.246786892E-4,-9.647905827E-3,1.242923737E-1
1.338092020E-1,-2.283714712E-4,-3.567516804E-3,5.843067169E-2
1.438494310E-1,2.607516944E-4,-9.549260139E-4,2.097129822E-2
1.538896610E-1,-2.702660859E-4,-4.208087921E-5,-2.858161926E-3
1.639298900E-1,-3.841631114E-4,-1.303315163E-3,1.754474640E-2
1.739701190E-1,-2.772174776E-4,-7.019042969E-4,1.887798309E-2
1.840103490E-1,-7.048174739E-4,-1.556634903E-3,3.495979309E-2
1.940505780E-1,-1.307949424E-5,-1.024127007E-3,1.961421967E-2
2.041213250E-1,-8.396208286E-4,-3.501832485E-3,5.448341370E-2
2.141615540E-1,4.288181663E-5,-3.623962402E-4,7.688522339E-3
2.242017840E-1,-3.415867686E-4,-7.702827454E-3,1.358518600E-1
2.342420130E-1,-2.912171185E-4,-4.211068153E-3,6.989383698E-2
2.442822420E-1,5.788505077E-4,-1.019424200E-2,1.706256866E-1
2.543224720E-1,-6.079934537E-4,-7.963180542E-3,1.425123215E-1
2.643627010E-1,4.858374596E-4,-8.267819881E-3,1.512393951E-1
2.744029310E-1,-3.846175969E-4,-2.869069576E-3,4.812622070E-2
2.844431600E-1,-2.862885594E-6,-3.862977028E-4,6.292343140E-3
2.945139070E-1,-1.775100827E-5,2.437233925E-4,-3.935813904E-3
3.045541360E-1,1.705922186E-4,1.531124115E-3,-2.534484863E-2
3.145943650E-1,-1.229238883E-2,-9.524405003E-3,6.076240540E-2
3.246345940E-1,2.323390171E-2,3.899097443E-3,4.155540466E-2
3.346748240E-1,4.403317720E-2,-1.120084524E-2,1.253080368E-1
3.447150540E-1,-1.431670785E-2,2.782160044E-2,7.972240448E-2
3.547552830E-1,7.677131891E-2,-5.155801773E-4,1.298828125E-1
3.647955120E-1,1.423889957E-2,-5.120515823E-3,6.750965118E-2
3.748357410E-1,4.691358656E-2,-3.001451492E-3,8.172607422E-2
3.849064880E-1,1.174028963E-3,1.325148344E-2,8.635520935E-2
3.949467170E-1,1.992445439E-2,4.088050127E-2,5.982875824E-2
4.049869460E-1,-3.834145144E-3,-1.234078407E-2,8.361244202E-2
4.150271770E-1,-6.141528487E-3,1.326531172E-2,6.830215454E-3
4.250674060E-1,1.541875396E-2,-4.331052303E-3,6.651401520E-2
4.351076350E-1,-4.870960116E-2,1.636016369E-2,-1.266574860E-2
4.451478640E-1,2.019719966E-2,6.597518921E-3,8.057117462E-2
4.552186110E-1,-9.013961256E-2,1.978456974E-3,9.722137451E-2
4.652588400E-1,8.079016209E-2,9.483993053E-3,1.018972397E-1
4.752990690E-1,-3.498962522E-2,-3.771841526E-2,6.829452515E-2
4.853393000E-1,1.661331393E-2,-6.527304649E-3,5.860137939E-2
4.953795290E-1,8.647911251E-3,-1.595538855E-2,5.849075317E-2
5.054197580E-1,4.039257765E-4,-1.412808895E-3,-8.656501770E-3
5.154599870E-1,1.710254326E-2,-3.110021353E-3,1.013908386E-1
5.255307340E-1,-3.042101860E-2,-1.400741935E-2,3.189277649E-2
5.355709630E-1,4.163127765E-2,-1.535862684E-2,1.275930405E-1
5.456111920E-1,-3.079678118E-2,-2.849537134E-2,6.289768219E-2
5.556514220E-1,6.084060669E-2,-1.078331470E-2,1.322593689E-1
5.656916520E-1,2.145624906E-2,4.413664341E-3,1.250038147E-1
5.757623990E-1,4.832562804E-2,9.758621454E-3,1.081533432E-1
5.858026280E-1,1.332019083E-2,-1.344332099E-2,1.176509857E-1
5.958428570E-1,1.633756980E-2,4.294335842E-3,3.139209747E-2
6.058830860E-1,2.393253148E-2,5.658298731E-3,9.598731995E-2
6.159233150E-1,-1.383509859E-2,1.487144828E-2,-5.007553101E-2
6.259635450E-1,1.297235861E-2,-8.563250303E-3,3.135395050E-2
6.360037740E-1,-5.233013630E-2,4.743307829E-3,-2.603244781E-2
6.460745210E-1,5.376285315E-2,-1.917189360E-2,5.549526215E-2
6.561147510E-1,-6.580237299E-3,-1.887211204E-2,1.083126068E-1
6.661549800E-1,3.996217251E-2,2.167153358E-2,8.448886871E-2
6.761952090E-1,2.918094397E-4,2.291509509E-2,8.695125580E-2
6.862354380E-1,-1.341762766E-2,2.620044351E-2,4.869365692E-2
6.962756680E-1,3.913063556E-2,3.899982572E-2,2.958106995E-2
7.063158970E-1,1.782158390E-2,7.365942001E-3,1.493883133E-1
7.163561270E-1,-8.558526635E-3,2.564489841E-3,1.279621124E-1
7.264268740E-1,-1.383101940E-2,-3.571969271E-2,6.344127655E-2
7.364671030E-1,-2.120683715E-2,-5.171453953E-2,8.036231995E-2
7.465073320E-1,1.362510026E-3,-2.439957857E-2,1.451864243E-1
7.565475610E-1,2.836473659E-2,-2.432125807E-2,1.885557175E-1
7.665877910E-1,1.441464573E-2,-3.183466196E-2,1.624708176E-1
7.766280200E-1,1.664676517E-2,-2.585536242E-2,2.141857147E-2
7.866682490E-1,2.259855717E-2,-1.334756613E-2,-8.855152130E-2
7.967389960E-1,3.249286115E-2,1.211398840E-2,-1.242494583E-1
8.067792260E-1,4.202271253E-2,2.272617817E-2,-1.215391159E-1
8.168194550E-1,2.935344726E-2,4.905003309E-2,-2.537822723E-2
8.268596840E-1,3.174427897E-2,6.344693899E-2,2.002162933E-1
8.368999140E-1,4.608885199E-2,5.878102779E-2,3.611812592E-1
8.469401430E-1,3.210448474E-2,5.651140213E-2,4.286441803E-1
8.569803720E-1,7.171344012E-3,6.306564808E-2,3.714361191E-1
8.670206010E-1,-7.033705711E-3,3.087800741E-2,2.661867142E-1
8.770913480E-1,-1.533780247E-2,9.706795216E-3,1.465234756E-1
8.871315780E-1,-6.229206920E-3,3.934115171E-2,4.365825653E-2
8.971718070E-1,8.062362671E-3,3.870010376E-3,-8.303165436E-2
9.072120370E-1,-2.523393184E-2,-5.900859833E-5,-1.185674667E-1
9.172522660E-1,-4.812801629E-2,-6.696504354E-2,-7.229328156E-2
9.272924950E-1,3.536934033E-2,3.867727518E-2,-4.740142822E-2
9.373327240E-1,-1.702491939E-2,4.422461987E-2,-5.581569672E-2
9.473729540E-1,-1.410262287E-2,-1.015645266E-2,-2.333831787E-2
9.574437010E-1,-2.098222077E-2,-5.522459745E-2,-1.461410522E-2
9.674839300E-1,-9.845137596E-3,-5.644643307E-2,8.565902710E-3
9.775241600E-1,1.986527443E-2,-6.375598907E-2,2.229881287E-2
9.875643890E-1,1.099420339E-2,-7.529473305E-2,2.655315399E-2
9.976046180E-1,1.838926971E-2,-1.174020767E-1,4.763793945E-2
1.007644847E0,1.500644535E-2,-8.983731270E-2,6.620216370E-2
1.017685076E0,1.770280302E-3,-9.379953146E-2,6.802368164E-2
1.027725307E0,1.244723797E-3,-7.253092527E-2,3.150367737E-2
1.037765536E0,-2.674832940E-3,-9.145641327E-2,-5.279064178E-2
1.047836283E0,6.795354187E-3,-1.049242616E-1,-3.161525726E-2
1.057876512E0,2.934016287E-3,-9.407961369E-2,8.542728424E-2
1.067916741E0,-6.499981880E-2,-5.468559265E-2,2.575836182E-1
1.077956970E0,-5.660848320E-2,-4.395800829E-2,3.124790192E-1
1.087997199E0,5.078013986E-2,1.630425453E-2,1.875648499E-1
1.098037429E0,-2.067768574E-2,1.913082600E-2,9.837627411E-2
1.108077659E0,8.762250096E-2,1.327525973E-1,7.341003418E-2
1.118117888E0,-4.130974412E-2,5.363368988E-2,-4.690170288E-2
1.128188635E0,7.557946444E-2,2.542293072E-2,-3.544712067E-2
1.138228864E0,3.865340352E-2,5.290842056E-2,3.385543823E-4
1.148269093E0,-5.131798983E-2,7.714855671E-2,9.379386902E-2
1.158309322E0,3.822641075E-2,1.210967302E-1,-2.576065063E-2
1.168349552E0,6.583480537E-2,5.378365517E-3,5.938529968E-3
1.178389782E0,5.672061443E-2,1.526498795E-2,-2.834320068E-3
1.188430011E0,3.838838637E-2,2.091586590E-2,-9.063720703E-3
1.198500758E0,-2.018651366E-2,4.075992107E-2,8.716583252E-3
1.208540987E0,5.473610759E-2,3.168416023E-2,-3.570652008E-2
1.218581216E0,2.442908287E-2,-4.649114609E-2,1.815509796E-2
1.228621445E0,6.243354082E-2,-9.835469723E-2,6.994247437E-2
1.238661675E0,-2.074423432E-2,-1.240270138E-1,1.047401428E-1
1.248701904E0,2.345393598E-2,-1.039217710E-1,1.492414474E-1
1.258742134E0,-6.024256349E-3,-8.817982674E-2,9.299945831E-2
1.268812881E0,-3.116568923E-2,-2.808678150E-2,-4.269695282E-2
1.278853110E0,-2.324993908E-2,-2.462935448E-2,-7.323551178E-2
1.288893339E0,-8.703708649E-3,-4.100990295E-2,-7.032394409E-2
1.298933568E0,3.413344920E-2,-5.963575840E-2,-5.060195923E-2
1.308973798E0,1.131929457E-2,-6.892251968E-2,2.416992188E-2
1.319014027E0,5.077767372E-2,-8.727514744E-2,3.436279297E-2
1.329054257E0,3.220000863E-2,-8.123016357E-2,5.864810944E-2
1.339094486E0,-1.480288804E-2,-7.675015926E-2,1.210365295E-1
1.349165233E0,4.590469599E-2,-2.655148506E-2,1.519851685E-1
1.359205462E0,2.404041588E-2,1.093149185E-4,1.419639587E-1
1.369245691E0,3.626890481E-2,3.660058975E-2,1.124725342E-1
1.379285921E0,3.701403737E-2,-5.805611610E-3,1.837825775E-2
1.389326150E0,3.320147097E-2,7.310271263E-3,-4.689502716E-2
1.399366379E0,3.398737311E-2,1.705682278E-2,-8.319664001E-2
1.409406609E0,1.234349608E-2,3.918516636E-2,-4.116058350E-3
1.419446838E0,2.970312536E-2,6.269288063E-2,8.715057373E-2
1.429517585E0,1.282177866E-2,3.977477551E-2,3.502655029E-2
1.439557814E0,2.966748178E-2,-1.326596737E-2,-1.268386841E-4
1.449598044E0,-2.371646464E-2,-3.170609474E-2,6.314182281E-2
1.459638273E0,-3.138193488E-2,-8.980631828E-3,1.792116165E-1
1.469678502E0,-1.987463236E-2,-2.712905407E-2,1.875562668E-1
1.479718731E0,4.431194067E-2,-5.103302002E-2,1.143684387E-1
1.489758961E0,4.418018460E-2,-1.492953300E-2,4.081821442E-2
1.499799191E0,3.765214980E-2,-1.969897747E-2,-2.792739868E-2
1.509839420E0,3.893548250E-2,-2.691757679E-2,-9.903240204E-2
1.519910167E0,4.636062682E-2,-4.154121876E-2,-1.026859283E-1
1.529950396E0,-3.075078130E-3,-2.717268467E-2,1.826000214E-2
1.539990625E0,1.875004172E-2,9.748697281E-3,9.633064270E-2
1.550030854E0,-4.689723253E-3,-1.766431332E-2,1.816911697E-1
1.560071084E0,2.495025098E-2,-3.854370117E-2,2.310676575E-1
1.570111314E0,3.130155802E-2,-5.608487129E-2,1.054363251E-1
1.580151543E0,1.131805778E-2,-7.845473289E-2,5.363082886E-2
1.590191772E0,4.245306551E-2,-8.724451065E-3,-3.429603577E-2
1.600232001E0,-1.730698347E-2,-3.710436821E-2,-8.627128601E-2
1.610302748E0,-1.935739815E-2,-5.405652523E-2,-7.079792023E-2
1.620342977E0,1.739755273E-3,-2.931559086E-2,-2.434730530E-3
1.630383206E0,-1.149035990E-2,-3.243660927E-2,5.894184113E-2
1.640423437E0,-2.901676297E-2,-1.383829117E-2,1.132240295E-1
1.650463666E0,-3.643336892E-2,3.463172913E-2,6.673526764E-2
1.660503895E0,-2.128663659E-2,3.926444054E-2,1.051044464E-2
1.670544124E0,-3.744125366E-3,2.558946609E-2,1.196002960E-2
1.680584353E0,3.062950075E-2,-1.104831696E-3,-1.499080658E-2
1.690624583E0,3.548161685E-2,-5.256175995E-3,6.178855896E-3
1.700664812E0,4.346211255E-2,-1.085519791E-2,-1.074981689E-2
1.710735559E0,4.171575606E-2,2.345752716E-2,5.352306366E-2
1.720775789E0,9.830600023E-2,2.611327171E-2,1.463432312E-1
1.730816018E0,5.319271982E-2,2.317285538E-2,2.102603912E-1
1.740856247E0,6.412822008E-2,2.493524551E-2,1.036252975E-1
1.750896476E0,3.810401261E-2,2.983689308E-2,-5.833244324E-2
1.760936706E0,4.601086676E-2,2.679038048E-2,-1.270008087E-1
1.770976935E0,3.601232171E-2,-1.885724068E-2,8.006095886E-3
1.781017165E0,5.018129945E-2,-5.625700951E-2,1.385059357E-1
1.791057394E0,1.999804378E-2,-4.866814613E-2,1.588058472E-1
1.801128141E0,5.268111825E-3,-2.097439766E-2,7.107162476E-2
1.811168370E0,2.616725862E-2,-3.573369980E-2,2.123451233E-2
1.821208599E0,3.782390058E-2,-4.872679710E-2,-7.245063782E-3
1.831248829E0,-1.684333384E-2,-2.071046829E-2,1.750717163E-1
1.841289058E0,-1.548714936E-2,-3.739595413E-3,1.852722168E-1
1.851329287E0,8.388623595E-3,3.167557716E-2,1.402721405E-1
1.861369517E0,-5.606421828E-2,7.413387299E-3,1.073093414E-1
1.871409746E0,2.679893374E-2,1.163721085E-2,8.857536316E-2
1.881449976E0,2.122250199E-2,-7.557868958E-3,7.950496674E-2
1.891490205E0,4.368701577E-2,-6.797075272E-3,1.557064056E-2
1.901560952E0,5.269446969E-2,-2.729868889E-2,2.422332764E-4
1.911601181E0,9.506282210E-2,1.567125320E-3,3.080558777E-2
1.921641410E0,6.209492683E-2,5.734920502E-3,2.833747864E-2
1.931681639E0,6.722839177E-2,8.641242981E-3,-1.929283142E-2
1.941721869E0,-6.649297476E-2,-7.625246048E-2,3.116111755E-1
1.951762099E0,1.889348477E-1,-3.626036644E-2,-4.210281372E-2
1.961802328E0,-3.495626152E-2,-1.296622753E-1,9.685993195E-2
1.971842557E0,2.174836397E-2,-9.313869476E-2,9.006023407E-2
1.981913304E0,5.618059635E-2,-1.098825932E-1,-7.744789124E-3
1.991953533E0,4.929387569E-2,-8.742523193E-2,-2.325057983E-3
2.001993762E0,3.090175986E-2,-6.309890747E-2,4.610061646E-2
2.012033992E0,1.785677671E-2,-5.121088028E-2,2.262687683E-2
2.022074222E0,1.963768899E-2,-5.584001541E-2,-1.060724258E-1
2.032114451E0,-6.008371711E-3,-3.268098831E-2,-6.019020081E-2
2.042154680E0,1.141150296E-2,7.510423660E-3,-5.489349365E-2
2.052194909E0,-3.450973332E-2,-1.826286316E-4,2.463817596E-2
2.062265656E0,-4.812555015E-2,2.465939522E-2,5.846214294E-2
2.072305885E0,-1.312324405E-2,-3.059530258E-2,2.404108047E-1
2.082346114E0,2.281424403E-2,-2.046060562E-2,2.159767151E-1
2.092386345E0,1.583008468E-2,-1.306104660E-2,1.596441269E-1
2.102426574E0,2.309405804E-2,2.884960175E-2,6.226348877E-2
2.112466803E0,4.167632759E-2,5.140113831E-2,-1.021671295E-1
2.122507032E0,3.600351512E-2,4.796862602E-2,-1.324100494E-1
2.132547261E0,4.369217157E-2,6.277751923E-2,-4.968929291E-2
2.142587491E0,-4.367426038E-2,1.424319744E-1,8.986663818E-2
2.152627721E0,4.156357050E-2,-1.450443268E-2,1.927070618E-1
2.162698468E0,5.207704008E-2,1.282382011E-2,2.740421295E-1
2.172738697E0,2.844411135E-2,4.041838646E-2,1.967811584E-1
2.182778926E0,5.013178289E-2,-1.844620705E-2,1.737899780E-1
2.192819155E0,3.706626594E-2,6.797552109E-3,6.155967712E-2
2.202859384E0,8.566677570E-3,3.836011887E-2,-1.743602753E-2
2.212899614E0,-3.630402684E-2,1.720619202E-2,-1.299476624E-1
2.222939843E0,6.247183681E-2,7.103681564E-3,-1.448249817E-2
2.233010590E0,-1.028478146E-2,-2.019309998E-2,1.183843613E-1
2.243050820E0,7.299758494E-2,-5.993103981E-2,1.122083664E-1
2.253091049E0,3.312481940E-2,-7.280802727E-2,8.867359161E-2
2.263131278E0,3.623540699E-2,-1.108622551E-1,1.077871323E-1
2.273171507E0,1.900142431E-2,-1.022322178E-1,4.434108734E-2
2.283211737E0,2.369052172E-2,-6.808853149E-2,-8.242130280E-2
2.293251966E0,4.839223623E-2,-5.370497704E-2,-1.143999100E-1
2.303322713E0,7.253852487E-2,-4.862642288E-2,1.383781433E-3
2.313362942E0,4.534922540E-2,-5.862641335E-2,1.617202759E-1
2.323403172E0,4.083941877E-2,-7.165265083E-2,2.756586075E-1
2.333443401E0,5.626155436E-2,-9.789562225E-2,2.065391541E-1
2.343483630E0,4.785813391E-2,-6.772923470E-2,-3.120994568E-2
2.353523860E0,7.946452498E-2,-2.316617966E-2,-1.691074371E-1
2.363564089E0,4.641151428E-2,4.389286041E-3,-2.113218307E-1
2.373604318E0,7.826511562E-2,9.323000908E-2,-8.790493011E-2
2.383675065E0,4.774890840E-2,1.378383636E-1,2.396202087E-2
2.393715295E0,4.992629588E-2,1.013121605E-1,1.240119934E-1
2.403755524E0,5.286118388E-2,6.738972664E-2,1.212787628E-1
2.413795753E0,3.283590078E-2,9.159898758E-2,6.542396545E-2
2.423835983E0,1.800850034E-2,8.994412422E-2,1.693820953E-2
2.433876212E0,3.130581975E-2,1.055052280E-1,-6.011962891E-2
2.443916441E0,-5.611404777E-3,1.326241493E-1,-5.106639862E-2
2.453987188E0,1.893354952E-2,1.076674461E-1,8.458137512E-3
2.464027417E0,3.486864269E-2,1.040747166E-1,4.878330231E-2
2.474067647E0,1.194953918E-2,8.148574829E-2,-5.686664581E-2
2.484107876E0,1.060514152E-2,3.794074059E-2,-1.383705139E-1
2.494148106E0,1.798920333E-2,2.108454704E-2,-1.575098038E-1
2.504188335E0,2.626226842E-2,-5.436730385E-2,-1.403837204E-1
2.514228564E0,4.479488730E-2,-1.325697899E-1,-6.044769287E-2
2.524268793E0,4.612330347E-2,-1.407840252E-1,2.858352661E-2
2.534339540E0,5.727602541E-2,-1.230099201E-1,9.950828552E-2
2.544379769E0,6.010960788E-2,-9.251475334E-2,1.957273483E-1
2.554419999E0,6.025627255E-2,-1.071314812E-1,2.214260101E-1
2.564460229E0,3.159471601E-2,-9.823346138E-2,1.285572052E-1
2.574500458E0,2.198523283E-2,-9.051275253E-2,-4.826927185E-2
2.584540687E0,5.453176796E-3,-8.434724808E-2,-1.894226074E-1
2.594580916E0,2.836138755E-2,-1.022379398E-1,-1.790018082E-1
2.604651663E0,1.455243677E-2,-7.668519020E-2,-1.725454330E-1
2.614691892E0,2.145158499E-2,1.112079620E-2,-1.414375305E-1
2.624732122E0,1.000281423E-2,4.449772835E-2,-1.364088058E-1
2.634772352E0,2.001791075E-2,7.492351532E-2,-2.846622467E-2
2.644812581E0,7.839876413E-2,1.041083336E-1,2.798519135E-1
2.654852810E0,7.490979880E-2,1.707761288E-1,7.072744370E-1
2.664893039E0,6.080797687E-2,1.412658691E-1,8.415889740E-1
2.674933268E0,1.203773990E-1,1.114263535E-1,7.044315338E-1
2.684973498E0,7.809370756E-2,1.421178579E-1,3.439779282E-1
2.695044244E0,3.998120502E-2,1.794970036E-1,-9.291267395E-2
2.705084475E0,-8.569665253E-3,2.256729603E-1,-3.922328949E-1
2.715124704E0,-3.032830358E-2,2.484041452E-1,-4.862852097E-1
2.725164933E0,5.360879004E-3,2.173267603E-1,-4.052228928E-1
2.735205162E0,-2.752319723E-2,1.495968103E-1,-2.965240479E-1
2.745245391E0,-6.506036222E-2,5.824577808E-2,-2.040367126E-1
2.755285621E0,-6.041619554E-2,7.035434246E-2,-8.471488953E-3
2.765356367E0,5.382260308E-3,1.292915344E-1,7.919406891E-2
2.775396597E0,-3.934984654E-2,7.571768761E-2,2.311038971E-1
2.785436827E0,2.105738409E-2,2.862429619E-2,2.795505524E-1
2.795477056E0,2.686508186E-2,-2.332806587E-3,2.748441696E-1
2.805517285E0,2.216871455E-2,-4.655599594E-3,1.879415512E-1
2.815557514E0,-2.430205606E-2,-5.003988743E-2,2.536106110E-2
2.825597744E0,-1.211139373E-2,-9.283053875E-2,-2.739143372E-2
2.835637973E0,-3.653734922E-2,-1.180218458E-1,-4.360294342E-2
2.845678203E0,-4.198917747E-2,-1.187336445E-1,2.971458435E-2
2.855748950E0,-2.729939297E-2,-1.063446999E-1,7.008457184E-2
2.865789179E0,6.716649514E-3,-9.253549576E-2,9.033298492E-2
2.875829408E0,8.247649297E-3,-7.691347599E-2,1.527976990E-1
2.885869637E0,-1.634099334E-2,-4.113101959E-2,2.026901245E-1
2.895909867E0,-2.474170551E-2,2.055072784E-2,1.495952606E-1
2.905950096E0,-4.433420673E-2,9.016966820E-2,1.154241562E-1
2.915990325E0,1.184515655E-3,7.245063782E-2,2.881813049E-2
2.926030555E0,6.201978307E-3,1.119949818E-1,-7.506370544E-3
2.936101302E0,4.643658549E-2,1.234208345E-1,1.854515076E-2
2.946141531E0,5.796804279E-2,1.352548599E-1,9.496974945E-2
2.956181760E0,7.797427475E-2,1.608481407E-1,1.617546082E-1
2.966221990E0,9.066981077E-2,1.842355728E-1,1.468381882E-1
2.976262219E0,3.028279170E-2,1.480960846E-1,3.589248657E-2
2.986302448E0,1.190680172E-2,7.927763462E-2,-9.094810486E-2
2.996342678E0,3.186219372E-3,6.736803055E-2,-7.624149323E-2
3.006382907E0,-9.890567511E-3,7.478666306E-2,-3.515148163E-2
3.016423137E0,-2.161415853E-2,6.450057030E-2,-3.453540802E-2
3.026493883E0,-1.118483394E-2,9.147834778E-2,-2.686214447E-2
3.036534113E0,-1.013548113E-2,1.053214073E-1,-4.961967468E-3
3.046574342E0,1.589379832E-2,1.028200388E-1,9.330463409E-2
3.056614571E0,3.381944448E-2,1.144055128E-1,1.984252930E-1
3.066654800E0,5.533279479E-2,1.286025047E-1,2.321062088E-1
3.076695030E0,1.006458551E-1,1.336700916E-1,2.122659683E-1
3.086735260E0,7.243797183E-2,1.292854548E-1,1.443157196E-1
3.096775489E0,4.800214246E-2,1.239519119E-1,4.998683929E-2
3.106846236E0,1.784765907E-2,6.525933743E-2,2.058887482E-2
3.116886465E0,2.141432278E-2,-7.770299911E-3,7.534408569E-2
3.126926694E0,1.264264286E-1,8.446884155E-2,1.038074493E-1
3.136966923E0,3.295800462E-2,8.087396622E-2,-1.017580032E-1
3.147007152E0,2.359713987E-2,1.528465748E-2,2.820014954E-2
3.157047383E0,-1.720655337E-2,9.903788567E-3,4.116916656E-2
3.167087612E0,3.656353056E-2,-3.203868866E-3,9.505558014E-2
3.177127841E0,-4.802761972E-2,-2.668666840E-2,1.467361450E-1
3.187198588E0,3.992878646E-2,-3.304290771E-2,1.098804474E-1
3.197238817E0,-5.394201726E-3,-4.228782654E-2,1.136856079E-1
3.207279046E0,-1.672410220E-2,-6.973028183E-3,-1.906490326E-2
3.217319275E0,1.660168171E-3,-5.534887314E-2,-1.292133331E-2
3.227359506E0,6.144315004E-3,-2.912557125E-2,-9.530925751E-2
3.237399735E0,4.093925655E-2,-3.049063683E-2,1.991271973E-3
3.247439964E0,4.056926444E-2,-2.907729149E-2,6.580924988E-2
3.257480193E0,3.307804093E-2,-6.289696693E-2,6.743717194E-2
3.267520423E0,2.768717706E-3,-5.504631996E-2,6.652355194E-2
3.277591169E0,1.737201959E-2,-1.439893246E-2,7.032966614E-2
3.287631398E0,1.917377114E-3,1.875478029E-2,1.052465439E-1
3.297671628E0,4.707873613E-2,1.322835684E-2,7.549953461E-2
3.307711858E0,3.510690853E-2,9.652495384E-3,4.093551636E-2
3.317752087E0,9.393602610E-3,-8.436024189E-3,-5.599021912E-3
3.327792316E0,3.848930448E-2,2.362066507E-2,2.208614349E-2
3.337832546E0,3.143938631E-2,2.505153418E-2,1.144723892E-1
3.347872775E0,3.511885926E-2,4.977887869E-2,1.253986359E-1
3.357943521E0,1.932737231E-2,5.277067423E-2,6.209850311E-2
3.367983751E0,8.094292134E-3,4.386389256E-2,-1.041345596E-1
3.378023980E0,5.064673722E-3,3.853529692E-2,-1.888389587E-1
3.388064210E0,3.463990986E-3,4.030352831E-2,-1.464281082E-1
3.398104439E0,2.720534801E-3,3.234016895E-2,-8.041381836E-3
3.408144669E0,-5.601570010E-4,5.428856611E-2,1.567869186E-1
3.418184898E0,1.461790502E-2,9.050667286E-2,2.880849838E-1
3.428225127E0,7.171012461E-3,1.011925936E-1,3.522033691E-1
3.438265356E0,5.665364489E-2,1.311321855E-1,3.059940338E-1
3.448336103E0,4.316046834E-2,9.696334600E-2,1.852083206E-1
3.458376333E0,1.823233068E-2,8.596950769E-2,5.480480194E-2
3.468416562E0,1.518654451E-2,8.698570728E-2,2.258491516E-2
3.478456792E0,2.947736159E-2,6.727403402E-2,-2.869892120E-2
3.488497021E0,2.888826653E-2,9.553432465E-2,-5.123233795E-2
3.498537250E0,1.373175159E-2,9.382820129E-2,-1.141452789E-2
3.508577479E0,-3.319770098E-3,7.470130920E-2,1.418781281E-2
3.518617708E0,8.920706809E-3,8.044797182E-2,4.705524445E-2
3.528657939E0,-2.129708230E-2,4.432362318E-2,5.129528046E-2
3.538728685E0,-3.199816495E-2,3.747504950E-2,1.727771759E-2
3.548768915E0,5.279213190E-3,4.708468914E-3,-1.670455933E-2
3.558809144E0,1.384882629E-2,-2.292567492E-2,-5.167961121E-3
3.568849373E0,2.678518370E-2,-2.172887325E-2,4.229068756E-2
3.578889602E0,5.707107484E-3,-1.426398754E-3,8.016967773E-2
3.588929831E0,1.075275242E-2,1.341593266E-2,1.395502090E-1
3.598970061E0,-1.746702939E-2,3.681856394E-2,8.394432068E-2
3.609010291E0,1.114284992E-2,3.287392855E-2,2.827072144E-2
3.619050520E0,3.170377016E-2,-2.631479502E-2,-5.614471436E-2
3.629121267E0,2.765678987E-2,-5.591040850E-2,-5.669975281E-2
3.639161496E0,4.048314318E-2,-3.489416838E-2,3.375530243E-2
3.649201725E0,5.773641914E-2,1.690506935E-2,1.361608505E-1
3.659241954E0,7.904388756E-2,3.180587292E-2,1.882266998E-1
3.669282184E0,4.115768895E-2,4.315179586E-2,1.684064865E-1
3.679322414E0,4.081862420E-2,8.771127462E-2,1.460304260E-1
3.689362643E0,-3.895532340E-3,8.644133806E-2,1.883010864E-1
3.699402872E0,3.227641433E-2,7.137250900E-2,1.731605530E-1
3.709443101E0,1.426606253E-2,8.224886656E-2,1.604118347E-1
3.719513848E0,2.687748522E-2,1.199340224E-1,1.140508652E-1
3.729554077E0,-2.413739264E-2,6.563162804E-2,1.660900116E-1
3.739594307E0,-2.466659993E-3,6.804469228E-2,2.780904770E-1
3.749634536E0,1.117408276E-3,9.700548649E-2,3.829355240E-1
3.759674766E0,-3.774061054E-2,1.175946295E-1,4.377050400E-1
3.769714995E0,-2.811343595E-2,1.121753156E-1,4.494037628E-1
3.779755224E0,-3.465808928E-2,1.082896888E-1,3.509311676E-1
3.789795454E0,-1.220022887E-2,9.696689248E-2,1.689023972E-1
3.799835683E0,-1.427821815E-3,7.757514715E-2,-1.292324066E-2
3.809906430E0,-4.577189684E-4,9.905064106E-2,-1.825151443E-1
3.819946659E0,5.010978132E-2,7.617309690E-2,-3.924903870E-1
3.829986889E0,2.483143657E-2,4.260098934E-2,-4.369230270E-1
3.840027118E0,2.078504488E-2,-1.615273952E-2,-3.756465912E-1
3.850067347E0,-9.444952011E-3,-5.303686857E-2,-2.972488403E-1
3.860107577E0,-1.286229119E-2,-9.919744730E-2,-1.324024200E-1
3.870147806E0,2.357594669E-2,-1.491782069E-1,-1.287078857E-2
3.880188035E0,3.765440360E-2,-1.914113760E-1,5.159378052E-2
3.890258782E0,6.093106046E-2,-1.909132600E-1,6.808471680E-2
3.900299011E0,7.081825286E-3,-1.288257837E-1,7.750129700E-2
3.910339241E0,-1.856588572E-2,-1.261190176E-1,1.651239395E-1
3.920379470E0,-8.011501282E-3,-1.484586596E-1,2.624320984E-1
3.930419700E0,-2.589485794E-2,-1.354315281E-1,3.396148682E-1
3.940459929E0,-4.320645332E-2,-1.275539398E-1,2.327632904E-1
3.950530676E0,-1.584783196E-2,-7.928371429E-2,1.125812531E-1
3.960570905E0,3.673402220E-2,-3.314477205E-2,3.460407257E-2
3.970611134E0,4.721520469E-2,3.353595734E-3,6.916999817E-3
3.980651363E0,7.102203369E-2,3.552693129E-2,1.181449890E-1
3.990691593E0,8.989329636E-2,1.443127394E-1,2.171506882E-1
4.000731823E0,8.769629896E-2,1.883400083E-1,2.488536835E-1
4.010802569E0,1.165352091E-1,2.349274755E-1,2.178163528E-1
4.020842799E0,7.028707862E-2,3.207071424E-1,1.236391068E-1
4.030883028E0,6.484891474E-2,4.079304934E-1,-3.351783752E-2
4.040923257E0,4.919052869E-2,4.509271979E-1,-2.534103394E-2
4.050963486E0,6.368580461E-2,3.664720058E-1,-6.378173828E-3
4.061034233E0,5.817917362E-2,3.061985970E-1,4.384231567E-2
4.071074463E0,3.604803234E-2,2.221129537E-1,1.477451324E-1
4.081114692E0,4.772739112E-2,2.029296756E-1,1.609563828E-1
4.091154922E0,-1.767128706E-3,1.827689409E-1,8.814430237E-2
4.101195151E0,-1.384954900E-3,1.929097176E-1,-1.498222351E-3
4.111235380E0,-1.041770726E-2,1.686168313E-1,-6.223297119E-2
4.121275609E0,2.496525832E-2,9.652888775E-2,-5.350112915E-3
4.131315838E0,8.650794625E-4,-4.717350006E-3,-4.397296906E-2
4.141386585E0,-3.419402242E-2,-7.729125023E-2,-1.472024918E-1
4.151426815E0,-5.960692093E-2,-1.067832708E-1,-1.713857651E-1
4.161467045E0,-1.647234708E-2,-1.431620121E-1,1.279258728E-2
4.171507274E0,-6.962150335E-2,-1.341788769E-1,1.227722168E-1
4.181547503E0,1.324341446E-2,-1.792943478E-1,1.943044662E-1
4.191587732E0,-3.997685015E-2,-2.124589682E-1,1.338930130E-1
4.201627961E0,5.905283988E-2,-2.016090155E-1,2.363300323E-2
4.211698708E0,8.931457996E-4,-1.889765263E-1,-7.706356049E-2
4.221738937E0,-5.091927201E-2,-2.227338552E-1,-2.092571259E-1
4.231779168E0,8.704887331E-2,-1.136419773E-1,-3.443908691E-2
4.241819397E0,-2.776069194E-2,-1.642128229E-1,9.804725647E-3
4.251859626E0,-5.063727498E-2,-2.188446522E-1,1.185274124E-1
4.261899855E0,-4.252015054E-2,-2.073192596E-1,1.341533661E-1
4.271940084E0,-4.123695195E-2,-1.214591265E-1,6.162929535E-2
4.282010831E0,6.034001708E-3,-8.634507656E-2,7.015895844E-2
4.292051060E0,-2.239286900E-3,-1.537883282E-2,1.550111771E-1
4.302091291E0,3.019244969E-2,2.647984028E-2,1.150102615E-1
4.312131520E0,3.504244983E-2,3.287434578E-2,5.352020264E-3
4.322171749E0,2.072259784E-3,4.758810997E-2,-3.741168976E-2
4.332211978E0,-8.422136307E-5,1.349561214E-1,-3.768920898E-3
4.342252207E0,-2.709554136E-2,1.393655539E-1,-1.786708832E-2
4.352322954E0,1.548512280E-2,1.052825451E-1,-3.881168365E-2
4.362363183E0,3.898441792E-2,8.932256699E-2,-9.268760681E-3
4.372403413E0,1.000803262E-1,9.744656086E-2,2.027702332E-2
4.382443643E0,7.937917858E-2,1.217718124E-1,7.370948792E-2
4.392483872E0,7.184281945E-2,1.293274164E-1,6.734848022E-2
4.402524101E0,8.638726175E-2,1.242064238E-1,6.331348419E-2
4.412594848E0,6.340944767E-2,7.434403896E-2,1.025571823E-1
4.422635077E0,4.487568140E-2,4.475903511E-2,1.224594116E-1
4.432675306E0,-1.895366609E-2,3.763067722E-2,2.498846054E-1
4.442715536E0,-1.696990430E-2,2.581822872E-2,2.428369522E-1
4.452755765E0,-8.887100220E-2,-3.026366234E-3,1.060590744E-1
4.462826512E0,-6.031687558E-2,-2.407681942E-2,-1.905059814E-2
4.472866742E0,-2.079477906E-2,-2.394485474E-2,-1.968955994E-2
4.482906971E0,1.691125333E-2,-1.720428467E-3,3.725337982E-2
4.492947200E0,6.829151511E-2,8.745074272E-3,1.181726456E-1
4.502987429E0,7.806685567E-2,-9.440183640E-3,1.703710556E-1
4.513027659E0,6.977438927E-2,-8.324503899E-3,1.292076111E-1
4.523098405E0,4.696322978E-2,-2.130734921E-2,4.974651337E-2
4.533138635E0,1.317942142E-2,-7.087230682E-3,-1.041316986E-2
4.543178865E0,2.846050262E-2,-1.278531551E-2,-8.703231812E-2
4.553219094E0,-3.287196159E-3,-2.135467529E-2,-9.621238708E-2
4.563259323E0,-2.756616473E-2,-7.248163223E-2,-9.757614136E-2
4.573299552E0,-5.171017349E-2,-9.495878220E-2,-7.207393646E-2
4.583339782E0,-6.051312387E-2,-8.161282539E-2,1.093578339E-2
4.593380011E0,-6.930041313E-2,-8.798658848E-2,6.754112244E-2
4.603450758E0,-7.780700922E-3,-2.428627014E-2,9.221172333E-2
4.613490987E0,-3.457288444E-2,-6.090581417E-2,7.099151611E-2
4.623531217E0,-9.419247508E-3,-7.341396809E-2,6.848239899E-2
4.633571446E0,-1.166583598E-2,-7.753777504E-2,2.263164520E-2
4.643611675E0,-1.981198788E-2,-5.386960506E-2,-3.060054779E-2
4.653651905E0,1.518920064E-2,-5.618476868E-2,-2.389431000E-2
4.663692134E0,1.703251898E-2,-7.195615768E-2,2.132320404E-2
4.673732363E0,1.667208970E-2,-6.074118614E-2,7.627010345E-2
4.683772592E0,1.923125982E-2,-1.384663582E-2,1.383714676E-1
4.693843339E0,3.853958100E-2,-2.037501335E-2,1.428699493E-1
4.703883569E0,5.435654521E-2,2.832031250E-2,5.112171173E-2
4.713923798E0,5.567386746E-2,6.031513214E-2,2.592563629E-2
4.723964028E0,6.938967109E-2,8.652544022E-2,-4.496097565E-2
4.734004257E0,4.762993753E-2,6.109619141E-2,6.485939026E-3
4.744044486E0,2.897816896E-2,2.832984924E-2,4.881381989E-2
4.754115233E0,6.595015526E-2,2.604222298E-2,5.558586121E-2
4.764155462E0,6.398475170E-2,4.222178459E-2,8.909893036E-2
4.774195692E0,7.796489447E-2,6.325936317E-2,1.226644516E-1
4.784235921E0,8.431632817E-2,8.467340469E-2,7.679080963E-2
4.794276151E0,6.997291744E-2,3.812909126E-2,4.510211945E-2
4.804316380E0,-5.356319249E-3,5.679941177E-2,8.007431030E-2
4.814387127E0,-8.356772363E-3,3.134179115E-2,1.914453506E-1
4.824427356E0,-1.427055150E-2,-3.229784966E-2,2.861118317E-1
4.834467585E0,-3.127966076E-2,-6.972074509E-2,1.174030304E-1
4.844507814E0,-4.199348390E-2,-1.160407066E-1,-6.605815887E-2
4.854548044E0,-3.831835836E-2,-1.180326939E-1,-1.564311981E-1
4.864588274E0,-1.060832292E-2,-2.468752861E-2,-1.559486389E-1
4.874628503E0,-4.399032891E-2,-2.768874168E-2,1.716613770E-5
4.884668732E0,3.251668811E-2,4.807806015E-2,1.439580917E-1
4.894739479E0,5.214827135E-2,7.988071442E-2,1.871566772E-1
4.904779708E0,2.974396199E-2,3.624081612E-2,9.841537476E-2
4.914819937E0,3.699705005E-3,2.979111671E-2,-1.373291016E-4
4.924860166E0,7.569327950E-3,2.369022369E-2,-4.377365112E-4
4.934900397E0,3.537727892E-2,3.684473038E-2,1.657485962E-2
4.944940626E0,1.539129764E-2,2.062582970E-2,6.031513214E-2
4.954980855E0,1.434425265E-2,1.255106926E-2,2.526092529E-2
4.965021084E0,1.771757007E-2,4.766726494E-2,-2.892780304E-2
4.975091831E0,1.250095665E-3,4.040694237E-2,-7.817077637E-2
4.985132060E0,-8.826337755E-3,1.486754417E-2,-8.652019501E-2
4.995172289E0,-2.354837209E-2,-1.146173477E-2,-2.507209778E-2
5.005212520E0,5.137354136E-3,-4.345631599E-2,3.673076630E-2
5.015252749E0,3.695994616E-3,-7.898712158E-2,7.728672028E-2
5.025292978E0,-1.131659746E-2,-9.568262100E-2,8.426856995E-2
5.035333207E0,-1.144465804E-2,-6.144070625E-2,9.565639496E-2
5.045403954E0,-2.322917432E-2,-7.818961143E-2,7.097434998E-2
5.055444183E0,6.460525095E-3,-6.606435776E-2,4.155254364E-2
5.065484412E0,-1.740349829E-2,-1.054883003E-1,-2.773761749E-2
5.075524642E0,3.347457573E-2,-1.305620670E-1,3.760051727E-2
5.085564872E0,2.374699712E-2,-1.147859097E-1,6.468009949E-2
5.095605101E0,3.072313964E-3,-7.842850685E-2,2.953529358E-3
5.105645330E0,2.807483077E-2,-1.836872101E-2,-1.149749756E-2
5.115716077E0,3.612704575E-3,4.690504074E-2,5.500221252E-2
5.125756306E0,-2.686873823E-2,6.936526299E-2,1.018600464E-1
5.135796535E0,-6.749644130E-2,4.436898232E-2,4.828166962E-2
5.145836765E0,-1.834766567E-2,2.657341957E-2,1.864624023E-2
5.155876994E0,-7.824847847E-2,9.011769295E-2,1.476669312E-2
5.165917224E0,-1.964306831E-2,7.740497589E-2,-6.325531006E-2
5.175957453E0,-2.511014789E-2,-4.066467285E-3,-2.618408203E-2
5.186028200E0,-2.093902230E-2,-2.059912682E-2,3.777503967E-3
5.196068429E0,3.054776043E-2,-5.158710480E-2,7.202243805E-2
5.206108658E0,-1.577905566E-2,-4.838895798E-2,-2.774047852E-2
5.216148888E0,3.091917187E-2,-7.402443886E-2,-3.474140167E-2
5.226189117E0,1.135747135E-2,-4.286503792E-2,-4.726600647E-2
5.236229347E0,3.602565825E-2,-1.028892994E-1,-1.268901825E-1
5.246269576E0,1.176173985E-2,-1.168799400E-1,-9.444618225E-2
5.256309805E0,1.762461662E-2,-7.115793228E-2,-2.134571075E-1
5.266380552E0,8.415259421E-3,-5.374813080E-2,-2.563095093E-1
5.276420781E0,4.911480844E-2,-6.605076790E-2,-2.012281418E-1
5.286461011E0,5.323416367E-2,-3.589820862E-2,-4.870414734E-2
5.296501240E0,5.401171371E-2,-8.923053741E-3,1.078662872E-1
5.306541469E0,8.978851885E-2,7.462263107E-3,1.247940063E-1
5.316581699E0,1.450471133E-1,-2.080273628E-2,1.025438309E-1
5.326621928E0,3.509109467E-2,-1.587915421E-2,1.269626617E-2
5.336662158E0,8.446282148E-2,1.306247711E-2,-6.803417206E-2
5.346732904E0,8.255929500E-2,7.027196884E-2,9.247875214E-2
5.356773134E0,6.286984682E-2,1.192843914E-1,2.390508652E-1
5.366813363E0,7.639261335E-2,1.483249664E-1,2.466993332E-1
5.376853592E0,9.000603855E-2,1.282379627E-1,1.009759903E-1
5.386893822E0,2.955917269E-2,8.098196983E-2,-6.396007538E-2
5.396934051E0,4.115031660E-2,8.717203140E-2,-1.280784607E-1
5.406974281E0,2.246582508E-2,9.191155434E-2,-5.974006653E-2
5.417014510E0,3.655558825E-2,1.094008684E-1,1.553621292E-1
5.427054739E0,-8.139330894E-3,1.087735891E-1,2.419195175E-1
5.437125486E0,5.105078220E-3,9.614729881E-2,1.154460907E-1
5.447165715E0,3.769993782E-5,1.003440619E-1,-1.813697815E-2
5.457205944E0,-2.289566025E-2,1.017453671E-1,1.106929779E-2
5.467246174E0,-5.158386752E-2,7.159829140E-2,1.675977707E-1
5.477286404E0,-5.323879421E-2,5.680918694E-3,1.331081390E-1
5.487326633E0,-5.409603193E-2,-2.100861073E-2,-7.595157623E-2
5.497366862E0,-4.331098497E-2,-8.341681957E-2,-2.011480331E-1
5.507407091E0,-3.499367461E-2,-1.243638992E-1,-2.704067230E-1
5.517447320E0,-6.974738091E-2,-7.976853848E-2,-2.000427246E-1
5.527518067E0,-5.693353713E-2,-5.415070057E-2,-7.850074768E-2
5.537558296E0,-3.634384274E-2,-2.941954136E-2,1.079578400E-1
5.547598527E0,-2.023134381E-2,-2.617120743E-2,2.465448380E-1
5.557638756E0,1.247725915E-2,-8.899450302E-3,3.223943710E-1
5.567678985E0,-4.085506499E-2,3.615856171E-3,2.417774200E-1
5.577719214E0,-5.010391027E-2,1.052010059E-2,1.386356354E-1
5.587789961E0,-4.314028472E-2,-1.052510738E-2,4.918193817E-2
5.597830190E0,-5.119476840E-2,6.248593330E-3,-1.637649536E-2
5.607870419E0,-6.361509860E-2,1.902711391E-2,-1.472282410E-2
5.617910650E0,-3.742915764E-2,2.357876301E-2,1.592350006E-2
5.627950879E0,-4.794416577E-2,1.024901867E-2,1.258239746E-1
5.637991108E0,4.784549586E-3,1.909410954E-2,1.736068726E-1
5.648061855E0,4.165275022E-3,3.736627102E-2,1.375970840E-1
5.658102084E0,2.392877266E-2,4.808592796E-2,8.240413666E-2
5.668142313E0,6.340327859E-2,5.680024624E-2,2.250766754E-2
5.678182542E0,4.432319105E-2,5.231082439E-2,-2.521228790E-2
5.688222772E0,8.766490221E-2,6.309008598E-2,-2.489280701E-2
5.698263002E0,5.804808438E-2,8.236980438E-2,-9.139251709E-2
5.708303231E0,2.286512591E-2,9.058558941E-2,-2.366352081E-2
5.718343460E0,7.069902867E-2,1.152278185E-1,1.134567261E-1
5.728414207E0,4.442969337E-3,1.263864040E-1,2.151870728E-1
5.738454436E0,2.886681631E-2,9.811520576E-2,2.497224808E-1
5.748494665E0,-1.551638916E-2,2.930259705E-2,1.099491119E-2
5.758534895E0,8.770734072E-3,1.469254494E-2,-1.300439835E-1
5.768575124E0,2.884704247E-2,2.003312111E-2,-1.296920776E-1
5.778615354E0,5.662463605E-2,1.289081573E-2,-5.483341217E-2
5.788655583E0,5.432515591E-2,2.178800106E-2,-1.270294189E-3
5.798726330E0,6.859438121E-2,2.188706398E-2,3.565788269E-2
5.808766559E0,5.059427023E-2,2.939808369E-2,1.061515808E-1
5.818806788E0,5.472426116E-2,1.473784447E-2,1.143188477E-1
5.828847018E0,4.943230748E-2,1.800763607E-2,5.049705505E-2
5.838887247E0,3.076946922E-2,-1.890778542E-3,9.660053253E-2
5.848927477E0,3.796471655E-2,-1.008880138E-2,1.307096481E-1
5.858967706E0,4.885192215E-2,-1.879322529E-2,6.899452209E-2
5.869007935E0,9.913319722E-3,-4.444599152E-3,5.745887756E-2
5.879078682E0,1.179460250E-2,2.163803577E-2,7.943344116E-2
5.889118911E0,-4.966557026E-5,3.348922729E-2,5.835342407E-2
5.899159141E0,5.150970072E-3,2.419602871E-2,-4.165840149E-2
5.909199370E0,-4.072919488E-3,3.470265865E-2,-6.495380402E-2
5.919239599E0,-1.426778361E-2,5.878472328E-2,-3.534507751E-2
5.929310346E0,-3.696543351E-2,7.410109043E-2,6.357192993E-3
5.939350576E0,-1.643221825E-2,9.047865868E-2,1.469039917E-2
5.949390805E0,-2.695919573E-2,5.694973469E-2,9.490680695E-2
5.959431034E0,-1.656866446E-2,5.836236477E-2,1.271286011E-1
5.969471264E0,-3.531581908E-2,5.353820324E-2,1.208753586E-1
5.979511493E0,-5.152029917E-2,2.518892288E-4,7.626056671E-2
5.989551722E0,-5.080775544E-2,-1.237392426E-3,1.719474792E-2
5.999591951E0,-3.433540463E-2,4.259824753E-3,-4.186630249E-2
6.009662698E0,-4.153502733E-2,-1.330339909E-2,-1.460933685E-2
6.019702928E0,7.330812514E-3,1.071727276E-2,2.233600616E-2
6.029743157E0,1.886196434E-2,1.632666588E-2,7.134342194E-2
6.039783387E0,-1.362666488E-3,1.280796528E-2,5.816078186E-2
6.049823616E0,-1.481048018E-2,2.136909962E-2,1.147937775E-2
6.059863845E0,7.280535996E-3,3.427398205E-2,1.743125916E-2
6.069934592E0,1.439765096E-3,2.320516109E-2,1.143779755E-1
6.079974821E0,-5.940914154E-3,1.402997971E-2,1.131267548E-1
6.090015051E0,6.197035313E-3,4.056453705E-3,-4.381561279E-2
6.100055280E0,9.876191616E-3,5.124807358E-3,-7.872676849E-2
6.110095510E0,8.974611759E-3,1.634883881E-2,-1.029014587E-3
6.120135739E0,3.545642644E-2,1.866257191E-2,1.916666031E-1
6.130175968E0,1.973181963E-2,1.129257679E-2,1.784515381E-1
6.140216197E0,6.817823648E-2,-1.668751240E-2,4.778289795E-2
6.150286944E0,1.081855595E-2,2.107697725E-2,-1.213064194E-1
6.160327173E0,8.296994120E-2,6.197392941E-3,-2.017812729E-1
6.170367403E0,9.218513966E-3,3.164160252E-2,-1.862697601E-1
6.180407633E0,9.558530897E-2,1.384657621E-2,-9.872531891E-2
6.190447862E0,5.671244487E-2,3.176897764E-2,9.679317474E-2
6.200488091E0,5.115798861E-2,6.694096327E-2,2.396907806E-1
6.210528320E0,6.245946512E-2,6.739056110E-2,3.920602798E-1
6.220599067E0,3.802483901E-2,7.950586081E-2,2.161874771E-1
6.230639296E0,6.740662456E-2,5.488735437E-2,9.990310669E-2
6.240679525E0,7.245786488E-3,6.589251757E-2,3.367424011E-2
6.250719756E0,-2.588450164E-2,7.927918434E-2,-1.450653076E-1
6.260759985E0,-2.212627232E-2,3.191936016E-2,-1.249389648E-1
6.270800214E0,-2.173805982E-2,3.255188465E-2,-2.078628540E-2
6.280840443E0,-1.957386732E-3,2.827423811E-2,-3.134536743E-2
6.290880672E0,-1.934937388E-2,3.748440742E-2,-2.499771118E-2
6.300951419E0,-3.020453453E-2,5.006033182E-2,4.609394073E-2
6.310991648E0,-2.392572910E-2,6.084358692E-2,5.260181427E-2
6.321031879E0,-1.091908664E-2,6.187087297E-2,3.036880493E-2
6.331072108E0,-1.307504624E-2,-8.463680744E-3,2.493381500E-2
6.341112337E0,1.195348799E-3,-1.740455627E-3,2.672004700E-2
6.351152566E0,-5.000904202E-4,-1.098155975E-2,-5.282402039E-2
6.361223313E0,8.370353281E-2,-5.858719349E-2,6.891155243E-2
6.371263542E0,6.490199268E-2,-8.840084076E-3,1.618576050E-1
6.381303771E0,3.866608441E-2,9.111285210E-3,2.116641998E-1
6.391344001E0,2.555801906E-2,1.843124628E-2,1.608047485E-1
6.401384231E0,1.727906242E-2,2.139115334E-2,6.891250610E-3
6.411424460E0,2.429982461E-2,3.570944071E-2,-9.437179565E-2
6.421464689E0,-1.273943111E-2,2.932304144E-2,-8.303260803E-2
6.431504918E0,-4.434980080E-2,5.606830120E-3,-2.606582642E-2
6.441575665E0,-1.484355517E-2,-1.420140266E-2,4.537582397E-2
6.451615894E0,1.140092500E-2,-7.141888142E-3,5.220794678E-2
6.461656124E0,2.301804349E-2,2.810972929E-2,3.267192841E-2
6.471696353E0,-5.821889266E-3,5.211073160E-2,8.006286621E-2
6.481736583E0,-1.990438253E-2,4.914075136E-2,1.441774368E-1
6.491776812E0,9.827177972E-3,4.971730709E-2,1.292085648E-1
6.501817041E0,7.904693484E-5,4.720968008E-2,7.829284668E-2
6.511887788E0,4.241621867E-2,3.254669905E-2,5.131626129E-2
6.521928017E0,2.568219788E-2,-2.941906452E-3,5.073261261E-2
6.531968247E0,2.800257131E-2,2.366900444E-3,7.171058655E-2
6.542008476E0,1.345139276E-2,1.482915878E-2,5.917739868E-2
6.552048706E0,1.140342094E-2,5.734193325E-2,1.546287537E-2
6.562088935E0,-9.747762233E-4,6.605428457E-2,-9.099960327E-3
6.572129164E0,-1.685013808E-2,7.491183281E-2,-1.209163666E-2
6.582169394E0,-5.168660730E-2,1.863414049E-2,2.573871613E-2
6.592240140E0,5.719695240E-2,3.187876940E-2,7.075881958E-2
6.602280370E0,2.997350134E-2,-1.866495609E-2,6.555652618E-2
6.612320599E0,-1.191364415E-2,2.419888973E-3,7.231903076E-2
6.622360828E0,1.007748581E-2,2.559566498E-2,3.357887268E-2
6.632401058E0,3.402287140E-3,2.988523245E-2,4.992771149E-2
6.642441287E0,-1.044132560E-2,-9.881854057E-4,3.519535065E-2
6.652481517E0,6.512042135E-3,7.069110870E-3,3.486633301E-2
6.662521746E0,1.124664955E-2,-8.568108082E-3,1.539897919E-2
6.672561975E0,1.343820244E-2,-3.107136488E-2,-6.443977356E-3
6.682632722E0,1.751866192E-3,-1.282694936E-2,3.636455536E-2
6.692672951E0,7.509760559E-3,3.859305382E-2,7.916164398E-2
6.702713181E0,3.560665250E-2,3.018483520E-2,8.605384827E-2
6.712753410E0,4.761961102E-2,-2.570873499E-2,1.073369980E-1
6.722793640E0,7.763300091E-3,-2.987769246E-2,1.094284058E-1
6.732833869E0,-4.594147205E-3,-4.807054996E-3,7.791233063E-2
6.742874098E0,-1.101236790E-2,1.915311813E-2,4.634761810E-2
6.752914327E0,-1.731702313E-2,1.909476519E-2,4.351902008E-2
6.762985074E0,-1.713305712E-3,1.953589916E-2,7.903194427E-2
6.773025303E0,-2.400383353E-3,9.016096592E-3,6.671333313E-2
6.783065533E0,9.311292320E-3,1.798835397E-2,5.920886993E-2
6.793105763E0,9.086444974E-3,3.001499176E-2,1.343059540E-2
6.803145992E0,1.033369452E-3,3.063941002E-2,2.753353119E-2
6.813186221E0,-1.145477965E-2,5.564978719E-2,7.756042480E-2
6.823226450E0,-2.902140468E-2,5.873945355E-2,1.228799820E-1
6.833266679E0,-7.057435811E-3,5.561178923E-2,1.562767029E-1
6.843337426E0,9.449794888E-3,7.207795978E-2,2.687110901E-1
6.853377655E0,-1.890691742E-2,8.027487993E-2,3.572568893E-1
6.863417886E0,-9.366218001E-3,6.452217698E-2,3.931312561E-1
6.873458115E0,-2.707429230E-4,7.942557335E-2,3.523683548E-1
6.883498344E0,-1.198346913E-2,9.026575089E-2,2.613620758E-1
6.893538573E0,8.348077536E-3,1.143826842E-1,1.871728897E-1
6.903578802E0,-6.161503494E-3,1.597423702E-1,6.058979034E-2
6.913619032E0,1.497640461E-2,9.606599808E-2,-1.161251068E-1
6.923659262E0,-6.101280451E-5,-4.392862320E-3,-2.854833603E-1
6.933730009E0,1.732987165E-2,1.932010055E-2,-4.139080048E-1
6.943770238E0,1.656264067E-2,2.905541658E-2,-2.691068649E-1
6.953810467E0,4.930131510E-2,-1.430237293E-2,-1.264209747E-1
6.963850696E0,4.018929601E-2,-4.119575024E-2,-1.056556702E-1
6.973890925E0,2.399783581E-2,-8.527237177E-2,-1.327247620E-1
6.983931155E0,1.814201474E-2,-1.090651155E-1,-1.272878647E-1
6.993971384E0,-3.075212240E-3,-7.818955183E-2,-1.416473389E-1
7.004011614E0,1.404576004E-3,-8.478552103E-2,-1.933765411E-2
7.014051843E0,4.542674124E-2,-1.229346395E-1,1.810817719E-1
7.024122590E0,3.952167928E-2,-1.558104753E-1,3.359336853E-1
7.034162819E0,1.056368649E-2,-1.541041136E-1,3.133668900E-1
7.044203048E0,1.278805733E-2,-1.351917982E-1,2.378034592E-1
7.054243278E0,-1.467178762E-2,-1.087586880E-1,1.536722183E-1
7.064283507E0,3.466141969E-2,-5.514144897E-2,8.282566071E-2
7.074323736E0,3.006428480E-2,1.033663750E-3,-9.870529175E-3
7.084363966E0,1.969804615E-2,2.738827467E-2,2.906799316E-3
7.094404195E0,4.620841146E-2,1.086946130E-1,3.482437134E-2
7.104474942E0,6.029219553E-2,1.919341683E-1,7.366275787E-2
7.114515171E0,4.157091677E-2,2.152999640E-1,6.462764740E-2
7.124555401E0,4.546247423E-2,2.182221413E-1,5.809688568E-2
7.134595630E0,4.359534010E-2,2.092947364E-1,2.241868973E-1
7.144635859E0,7.493644953E-4,2.512461543E-1,7.172298431E-2
7.154676089E0,-5.671392381E-2,2.374776006E-1,1.516799927E-1
7.164716318E0,-5.125812441E-2,2.539874315E-1,1.214485168E-1
7.174756548E0,2.530790865E-3,1.846742630E-1,1.060428619E-1
7.184827294E0,-1.073047370E-1,1.479989886E-1,8.845233917E-2
7.194867524E0,7.345438004E-3,8.842235804E-2,8.934020996E-3
7.204907753E0,-1.761737466E-2,4.390686750E-2,8.523941040E-3
7.214947982E0,1.942108572E-2,-7.159173489E-3,2.255058289E-2
7.224988211E0,-1.656277478E-2,-6.382364035E-2,6.525421143E-2
7.235028441E0,-9.980350733E-4,-5.895233154E-2,1.103363037E-1
7.245068671E0,-2.151353657E-2,-4.067075253E-2,-1.007947922E-1
7.255108900E0,4.693186283E-2,2.357053757E-2,-8.942890167E-2
7.265179647E0,3.691815585E-2,-1.073193550E-2,-3.847122192E-3
7.275219876E0,6.551897526E-2,-2.915382385E-2,5.769348145E-2
7.285260105E0,5.368274450E-2,-7.966589928E-2,3.771591187E-2
7.295300334E0,3.813063353E-2,-8.879530430E-2,5.345916748E-2
7.305340563E0,7.445903122E-2,-7.805633545E-2,3.070831299E-2
7.315380794E0,3.107312322E-2,-7.548856735E-2,-6.484985352E-3
7.325421023E0,4.232365638E-2,-8.459687233E-2,-2.205944061E-2
7.335461252E0,1.699106395E-2,-9.552729130E-2,2.232551575E-2
7.345531999E0,7.138893008E-3,-7.258653641E-2,4.284000397E-2
7.355572228E0,1.902934909E-2,-3.038251400E-2,3.704929352E-2
7.365612457E0,1.593935490E-2,-4.011189938E-2,3.374671936E-2
7.375652686E0,4.597529769E-3,-3.225922585E-2,4.490852356E-2
7.385692917E0,-7.724121213E-3,-3.764212132E-2,1.072120667E-2
7.395733146E0,-7.202312350E-3,-2.293550968E-2,5.375862122E-3
7.405773375E0,-1.220060885E-2,-2.832174301E-3,5.039596558E-2
7.415813604E0,-1.784679294E-2,2.653217316E-2,1.025733948E-1
7.425853833E0,2.929441631E-2,3.385782242E-2,8.049011230E-2
7.435894063E0,-6.138280034E-3,4.971122742E-2,-1.542091370E-3
7.445964809E0,-3.250864148E-2,4.074120522E-2,1.212692261E-2
7.456005039E0,1.569524407E-2,2.964508533E-2,2.106666565E-2
7.466045269E0,-2.172833681E-2,2.542400360E-2,4.196357727E-2
7.476085498E0,-3.410598636E-2,1.669859886E-2,8.448410034E-2
7.486125727E0,-1.976162195E-2,-2.762198448E-2,6.721973419E-2
7.496165956E0,-2.515123785E-2,-2.705097198E-2,4.748821259E-2
7.506206186E0,3.264963627E-2,-5.542516708E-3,3.244876862E-2
7.516246415E0,4.120124876E-2,2.935528755E-2,5.025863647E-4
7.526286645E0,4.440030456E-2,6.596338749E-2,-6.984806061E-2
7.536357392E0,2.931088209E-3,7.403767109E-2,-6.113338470E-2
7.546397621E0,5.316339433E-2,9.887480736E-2,-2.849960327E-2
7.556437850E0,3.273178637E-2,1.093508005E-1,-2.660751343E-4
7.566478079E0,3.945624828E-2,7.832479477E-2,8.125972748E-2
7.576518309E0,6.858572364E-2,2.253746986E-2,2.181396484E-1
7.586558538E0,9.501016885E-2,2.125310898E-2,1.873674393E-1
7.596598767E0,8.002966642E-3,4.359757900E-2,1.011285782E-1
7.606669514E0,4.342342913E-2,4.691863060E-2,3.367519379E-2
7.616709744E0,6.448656321E-3,6.247401237E-3,3.073024750E-2
7.626749973E0,2.089998126E-2,3.275871277E-3,4.444026947E-2
7.636790202E0,-3.089976311E-2,-4.482698441E-2,2.471733093E-2
7.646830432E0,-9.691476822E-3,-7.253456116E-2,-8.095932007E-2
7.656870661E0,-8.509606123E-3,-1.538066864E-1,-1.069488525E-1
7.666910890E0,-4.622802138E-3,-1.596478224E-1,-1.299476624E-2
7.676951119E0,1.030403376E-2,-1.424086094E-1,1.905708313E-1
7.686991349E0,3.820089996E-2,-1.116210222E-1,2.766790390E-1
7.697062096E0,2.859324217E-3,-7.687413692E-2,1.850748062E-1
7.707102325E0,4.713007808E-2,-4.825127125E-2,3.540515900E-2
7.717142555E0,4.030324519E-2,-2.267158031E-2,-1.650190353E-1
7.727182784E0,1.189032197E-2,-1.732134819E-2,-2.119913101E-1
7.737223013E0,1.444293559E-2,-1.928091049E-3,-1.196117401E-1
7.747263242E0,4.051835835E-2,-1.003277302E-2,4.377365112E-3
7.757303472E0,1.440009475E-2,-1.894223690E-2,1.885185242E-1
7.767343702E0,8.978605270E-3,-3.058493137E-2,2.648630142E-1
7.777414448E0,1.405583322E-2,2.921819687E-3,1.395998001E-1
7.787454678E0,2.252478898E-2,4.222011566E-2,7.829666138E-2
7.797494907E0,9.943321347E-3,4.587018490E-2,5.733394623E-2
7.807535136E0,1.546946168E-2,7.116568089E-2,2.897262573E-3
7.817575365E0,4.352916777E-2,5.934798717E-2,-1.060581207E-2
7.827615594E0,3.191420436E-2,2.501416206E-2,2.165603638E-2
7.837655825E0,1.587463915E-2,1.312530041E-2,3.254127502E-2
7.847696054E0,-8.544325829E-5,-1.548135281E-2,8.653831482E-2
7.857736283E0,1.989696920E-2,-1.318311691E-2,1.644439697E-1
7.867807030E0,2.981774509E-2,-2.573394775E-2,1.728248596E-1
7.877847259E0,4.831998050E-2,-2.279078960E-2,1.474437714E-1
7.887887488E0,1.114672422E-2,2.317321301E-2,1.862487793E-1
7.897927717E0,2.591489255E-2,5.604588985E-2,1.051254272E-1
7.907967947E0,1.496635377E-2,1.019972563E-1,7.021903992E-3
7.918008177E0,1.939290762E-2,9.187805653E-2,1.214027405E-2
7.928048406E0,2.194857597E-2,6.498825550E-2,8.474254608E-2
7.938088635E0,3.543123603E-2,4.452717304E-2,1.504449844E-1
7.948159382E0,4.898363352E-2,2.707314491E-2,1.084823608E-1
7.958199611E0,1.004348695E-2,-9.690403938E-3,3.054428101E-2
7.968239840E0,3.789395094E-3,1.967394352E-2,-8.108901978E-2
7.978280070E0,-1.839956641E-2,6.613636017E-2,-1.471481323E-1
7.988320300E0,4.976994544E-2,2.533245087E-2,-3.579330444E-2
7.998360529E0,2.062261105E-2,3.915107250E-2,3.285312653E-2
8.008400758E0,2.586856484E-3,6.826400757E-3,1.138343811E-1
8.018440987E0,3.657616675E-2,-5.354487896E-2,7.048511505E-2
8.028481217E0,-8.667856455E-3,-6.671273708E-2,-4.071235657E-3
8.038551963E0,9.178981185E-3,-9.022068977E-2,-4.044437408E-2
8.048592193E0,1.132115722E-3,-8.646976948E-2,3.305053711E-2
8.058632422E0,3.255889565E-2,-9.293019772E-2,1.016235352E-1
8.068672652E0,4.187012464E-2,-8.582139015E-2,9.103202820E-2
8.078712881E0,6.116967648E-2,-9.089457989E-2,3.252506256E-2
8.088753110E0,5.960214883E-2,-8.203577995E-2,2.679824829E-3
8.098793340E0,4.859388620E-2,-4.520666599E-2,-3.209781647E-2
8.108833569E0,5.585603416E-2,-3.921747208E-2,2.603530884E-3
8.118904316E0,2.533851564E-2,-7.483959198E-3,-1.108169556E-3
8.128944545E0,5.583220720E-2,-6.757140160E-3,-3.114795685E-2
8.138984774E0,6.684431434E-2,-1.293158531E-2,-6.831645966E-2
8.149025004E0,2.797407657E-2,-4.251837730E-2,4.546546936E-2
8.159065233E0,5.014564097E-2,-6.130003929E-2,-3.205585480E-2
8.169105463E0,-7.804155350E-3,-8.947479725E-2,3.413772583E-2
8.179145692E0,-1.991553605E-2,-9.833836555E-2,1.418399811E-2
8.189185921E0,-2.215802670E-2,-9.254920483E-2,1.470403671E-1
8.199256668E0,-5.132089555E-2,-5.232143402E-2,2.173805237E-1
8.209296897E0,-5.270093679E-4,-5.652523041E-2,1.821174622E-1
8.219337127E0,-4.971082509E-2,6.127357483E-5,2.918243408E-3
8.229377356E0,2.867671847E-2,-5.890703201E-2,-1.405248642E-1
8.239417586E0,-1.902031898E-2,-3.623938560E-2,-2.887334824E-1
8.249457815E0,-5.401849747E-3,4.197812080E-2,-2.596874237E-1
8.259498044E0,3.655233234E-2,6.056499481E-2,-1.731405258E-1
8.269538273E0,3.015479445E-2,6.432354450E-2,1.386070251E-2
8.279609020E0,8.602157235E-3,4.932045937E-2,1.166429520E-1
8.289649249E0,2.103252709E-2,2.642428875E-2,6.743907928E-2
8.299689479E0,9.403958917E-3,1.677000523E-2,-5.190658569E-2
8.309729709E0,2.574041486E-3,2.679741383E-2,-8.782005310E-2
8.319769938E0,2.431508899E-2,5.271458626E-2,1.736259460E-2
8.329810167E0,2.442200482E-2,3.532040119E-2,9.139728546E-2
8.339850396E0,6.568458676E-2,-2.317798138E-2,6.242656708E-2
8.349890625E0,5.824786425E-2,-3.977894783E-2,-6.490230560E-2
8.359961372E0,1.083606109E-1,-2.822613716E-2,-3.178596497E-3
8.370001602E0,6.459909678E-2,1.449966431E-2,1.974372864E-1
8.380041832E0,6.405391544E-2,1.767778397E-2,1.947927475E-1
8.390082061E0,8.835552633E-2,5.203247070E-3,-1.996040344E-3
8.400122290E0,7.206366956E-2,-1.530981064E-2,-2.084970474E-1
8.410162519E0,4.024634510E-2,2.697885036E-2,-3.215074539E-1
8.420202748E0,6.489139795E-2,7.602715492E-2,-2.282352448E-1
8.430242978E0,5.285974219E-2,1.097733974E-1,-5.806827545E-2
8.440313724E0,7.370506972E-2,1.268296242E-1,1.624002457E-1
8.450353955E0,6.024178118E-2,8.451235294E-2,4.112644196E-1
8.460394184E0,2.506645396E-2,4.175543785E-2,4.509172440E-1
8.470434413E0,1.995303109E-2,1.485824585E-3,3.030433655E-1
8.480474642E0,6.368540227E-3,-2.298390865E-2,1.139526367E-1
8.490514871E0,-3.391097113E-2,-3.726661205E-2,-4.184532166E-2
8.500555101E0,-1.712566242E-2,-7.939815521E-3,-1.208581924E-1
8.510625847E0,-2.857287601E-2,-5.864620209E-3,-9.897899628E-2
8.520666077E0,-3.898567706E-2,5.817234516E-2,-7.667732239E-2
8.530706307E0,-8.478570729E-3,1.410079002E-2,-4.440784454E-2
8.540746536E0,-1.443728060E-2,2.898871899E-2,7.433986664E-2
8.550786765E0,-1.991349086E-2,9.420263767E-2,1.644058228E-1
8.560826994E0,1.808964461E-2,6.574940681E-2,1.682863235E-1
8.570867224E0,1.284401864E-2,5.341911316E-2,1.170616150E-1
8.580907453E0,3.058847785E-2,6.795144081E-2,9.230613708E-2
8.590947683E0,2.729330026E-2,7.639122009E-2,1.269435883E-2
8.601018430E0,4.275355861E-2,6.528508663E-2,7.633209229E-3
8.611058659E0,2.171244100E-2,6.801009178E-2,3.639221191E-2
8.621098888E0,2.317273989E-2,7.987868786E-2,9.897136688E-2
8.631139117E0,1.761227474E-2,1.013056040E-1,1.065053940E-1
8.641179347E0,-2.544751763E-2,5.945003033E-2,4.117965698E-3
8.651219576E0,-5.666691437E-2,8.271932602E-3,-3.836059570E-2
8.661259805E0,-4.751981422E-2,-1.341009140E-2,-4.241085052E-2
8.671300035E0,-4.305055737E-2,1.810526848E-2,-1.285457611E-2
8.681340264E0,-7.072684914E-2,-1.402533054E-2,1.078310013E-1
8.691411011E0,-2.379011363E-2,4.544615746E-3,1.615447998E-1
8.701451240E0,-4.895462189E-3,5.049586296E-3,1.432733536E-1
8.711491470E0,-1.682245731E-2,-1.000750065E-2,1.392250061E-1
8.721531699E0,1.003896259E-2,-4.016339779E-2,7.524490356E-2
8.731571928E0,-4.194583744E-4,-3.720605373E-2,-7.922172546E-3
8.741612157E0,1.360805333E-2,-3.418600559E-2,-1.102132797E-1
8.751652387E0,1.075571403E-1,5.026578903E-3,1.739120483E-2
8.761692617E0,-8.648856729E-2,3.036308289E-2,1.307106018E-1
8.771732846E0,2.221400663E-2,9.731888771E-3,1.245689392E-1
8.781803593E0,-1.948394254E-2,3.646373749E-3,9.930801392E-2
8.791843822E0,1.563908532E-2,6.556987762E-3,5.483722687E-2
8.801884051E0,-1.734914817E-2,4.676020145E-2,8.208751678E-2
8.811924280E0,2.339046448E-3,4.385840893E-2,7.583332062E-2
8.821964510E0,1.016008202E-3,3.612542152E-2,6.959056854E-2
8.832004740E0,-3.980474547E-2,6.084454060E-2,3.211879730E-2
8.842044969E0,-1.876370050E-2,3.863513470E-2,-1.480102539E-2
8.852085198E0,-1.921350881E-2,6.815493107E-2,1.719856262E-2
8.862125427E0,-1.729089767E-2,4.842245579E-2,6.130123138E-2
8.872196174E0,-2.959754318E-3,3.195977211E-2,1.055173874E-1
8.882236403E0,-6.849344820E-3,1.817488670E-2,1.282320023E-1
8.892276632E0,6.179628894E-3,2.291631699E-2,1.054077148E-1
8.902316863E0,-7.029892877E-3,1.508998871E-2,2.028465271E-2
8.912357092E0,4.181574285E-2,1.626050472E-2,1.652240753E-2
8.922397321E0,1.938322373E-2,-3.823935986E-3,6.787872314E-2
8.932437550E0,8.583009243E-3,6.801843643E-3,5.935478210E-2
8.942508297E0,-9.250417352E-3,-2.045631409E-3,-5.452537537E-2
8.952548526E0,1.811268553E-2,-3.928244114E-2,-8.693790436E-2
8.962588755E0,2.698448859E-2,3.318572044E-2,4.104518890E-2
8.972628985E0,7.826311886E-2,1.004266739E-1,6.341743469E-2
8.982669215E0,3.410065174E-2,5.389147997E-2,1.172943115E-1
8.992709444E0,5.282358080E-2,5.969393253E-2,1.208686829E-1
9.002749673E0,2.491055429E-2,6.991714239E-2,8.132743835E-2
9.012789902E0,2.420639619E-2,3.766185045E-2,5.381965637E-2
9.022860649E0,1.113865525E-2,3.692305088E-2,8.861255646E-2
9.032900878E0,4.632317275E-2,2.506405115E-2,8.758544922E-2
9.042941108E0,1.587075740E-2,1.405256987E-2,1.004123688E-2
9.052981338E0,5.610749125E-3,-2.704709768E-2,-3.387165070E-2
9.063021567E0,-1.963488758E-3,-1.459604502E-2,1.328182220E-2
9.073061796E0,-2.015674859E-2,8.234083652E-3,2.017631531E-1
9.083102025E0,5.612999201E-3,7.710933685E-3,3.112754822E-1
9.093142255E0,3.795444965E-3,-1.842498779E-2,1.644678116E-1
9.103182484E0,1.496613026E-3,-5.629324913E-2,-8.306694031E-2
9.113253231E0,-7.267594337E-4,-7.334840298E-2,-2.683944702E-1
9.123293460E0,-2.897280455E-2,-8.324223757E-2,-2.356472015E-1
9.133333690E0,7.779717445E-3,-4.458814859E-2,-1.595554352E-1
9.143373919E0,3.738611937E-3,-1.365578175E-2,3.639411926E-2
9.153414148E0,7.057243586E-2,-2.074670792E-2,2.395391464E-1
9.163454378E0,1.823619008E-3,1.391321421E-2,3.683509827E-1
9.173494607E0,6.340809911E-2,3.128492832E-2,3.269472122E-1
9.183534836E0,6.711535156E-3,3.572833538E-2,2.781143188E-1
9.193605583E0,-3.872543573E-3,3.325557709E-2,1.236333847E-1
9.203645813E0,-3.014104068E-2,6.286263466E-3,1.104106903E-1
9.213686042E0,-4.402758181E-2,2.493250370E-2,-3.444957733E-2
9.223726271E0,-2.216503024E-3,3.027087450E-2,-4.033851624E-2
9.233766501E0,-2.412907779E-3,2.061384916E-2,-1.753654480E-1
9.243806730E0,-6.941460073E-3,2.712064981E-2,-4.210186005E-2
9.253846959E0,4.094168544E-4,5.416566133E-2,-3.084087372E-2
9.263917706E0,3.854870424E-2,3.262156248E-2,1.405429840E-2
9.273957935E0,3.081477433E-2,2.251088619E-2,2.315521240E-2
9.283998165E0,2.955450863E-2,3.461515903E-2,6.581497192E-2
9.294038394E0,3.722949326E-2,1.828354597E-2,5.821514130E-2
9.304078624E0,2.820363641E-2,2.827787399E-2,4.343605042E-2
9.314118853E0,1.696085185E-2,3.094500303E-2,4.062652588E-2
9.324159082E0,5.918212235E-3,7.403790951E-3,1.120510101E-1
9.334199311E0,9.830467403E-3,-9.036600590E-3,2.002401352E-1
9.344270058E0,-1.380891353E-2,5.021452904E-3,1.950330734E-1
9.354310287E0,2.374111116E-2,-2.128553391E-2,7.241249084E-2
9.364350517E0,2.888487279E-2,-4.382461309E-2,-7.658004761E-2
9.374390747E0,2.495855093E-2,-3.958052397E-2,-1.393432617E-1
9.384430976E0,5.357019231E-2,-2.186721563E-2,-1.254100800E-1
9.394471205E0,4.651584104E-2,9.359300137E-3,-3.958225250E-2
9.404511434E0,4.918821901E-2,8.200138807E-3,2.953147888E-2
9.414582181E0,2.933772653E-2,4.068633914E-2,6.991672516E-2
9.424622410E0,2.587883919E-2,3.472232819E-2,1.031141281E-1
9.434662640E0,1.533552259E-2,4.711380601E-2,6.684589386E-2
9.444702870E0,-6.036870182E-3,4.360353947E-2,1.375961304E-2
9.454743099E0,2.837735787E-2,2.033895254E-2,2.051067352E-2
9.464783328E0,2.026097849E-2,1.618734002E-2,5.839824677E-2
9.474823557E0,1.213448495E-2,1.888534427E-2,1.250076294E-1
9.484863786E0,-3.308985382E-3,2.357900143E-3,1.174039841E-1
9.494934533E0,5.686730146E-4,2.822276950E-2,7.625961304E-2
9.504974762E0,1.465755701E-2,3.478506207E-2,2.075862885E-2
9.515014993E0,2.059261501E-2,1.809266210E-2,-5.624294281E-2
9.525055222E0,2.489825338E-2,2.899289131E-2,-2.065277100E-2
9.535095451E0,1.694150269E-2,2.891308069E-2,7.723236084E-2
9.545135680E0,-1.141123474E-3,5.046522617E-2,8.653640747E-2
9.555175909E0,-8.092895150E-4,2.457225323E-2,1.628952026E-1
9.565216139E0,-1.006262749E-2,-8.468538523E-3,1.937694550E-1
9.575256368E0,-6.461098790E-3,1.784980297E-2,1.575994492E-1
9.585327115E0,-2.250517160E-2,3.374844790E-3,1.094741821E-1
9.595367345E0,-1.555670798E-2,1.047611237E-3,2.545928955E-2
9.605407574E0,1.341214776E-2,-4.576444626E-3,-8.215904236E-3
9.615447803E0,3.181570768E-2,1.501089334E-2,2.997684479E-2
9.625488032E0,1.574943215E-2,2.162572742E-2,3.948020935E-2
9.635528262E0,2.284511179E-2,-9.007841349E-3,9.450435638E-2
9.645568491E0,1.529522240E-2,-1.734635234E-2,1.351852417E-1
9.655608721E0,2.226777375E-2,-2.059122920E-2,2.022151947E-1
9.665679468E0,1.752766222E-2,-2.281397581E-3,2.357292175E-1
9.675719697E0,1.073604077E-2,-1.262688637E-2,2.500972748E-1
9.685759926E0,-1.520521939E-2,5.996406078E-3,2.381372452E-1
9.695800155E0,-5.389608443E-3,-1.772823930E-2,2.022590637E-1
9.705840385E0,-2.133199573E-2,-2.323958278E-2,1.831951141E-1
9.715880614E0,-1.254238933E-2,-2.660426497E-2,2.791366577E-1
9.725920843E0,-2.504702657E-2,1.046040654E-2,1.979846954E-1
9.735961073E0,-6.442077458E-3,4.909554124E-2,1.073169708E-1
9.746031820E0,3.586920351E-2,5.192354321E-2,-6.465911865E-2
9.756072049E0,2.338327467E-2,4.070368409E-2,-2.030000687E-1
9.766112278E0,3.009755164E-2,6.106925011E-2,-2.788686752E-1
9.776152508E0,1.670086384E-2,6.127551198E-2,-2.587909698E-1
9.786192737E0,-5.375936627E-3,1.211011410E-2,-2.337522507E-1
9.796232966E0,-3.533670306E-2,-1.059156656E-2,-2.253017426E-1
9.806273195E0,-1.795583963E-2,-3.660511971E-2,-1.496686935E-1
9.816313426E0,-3.209371865E-2,-1.130103469E-1,-3.073883057E-2
9.826384172E0,-9.453728795E-3,-1.758115292E-1,1.072463989E-1
9.836424401E0,1.037010550E-2,-1.784247756E-1,1.542072296E-1
9.846464631E0,4.215952754E-2,-1.475527883E-1,2.033376694E-1
9.856504860E0,2.556338906E-2,-1.109281778E-1,1.877737045E-1
9.866545089E0,2.345819771E-2,-8.925366402E-2,1.313600540E-1
9.876585318E0,3.822083771E-2,-5.745965242E-2,1.299219131E-1
9.886625549E0,7.226599008E-2,-6.368672848E-2,2.797031403E-2
9.896696295E0,7.660934329E-2,-3.170096874E-2,7.928466797E-2
9.906736524E0,5.103319883E-3,6.015777588E-3,9.957504272E-2
9.916776754E0,2.924876660E-2,4.206657410E-2,4.811763763E-2
9.926816983E0,4.265745729E-2,-1.179307699E-2,5.424594879E-2
9.936857212E0,3.128426522E-2,-4.452168941E-3,1.107759476E-1
9.946897441E0,1.975440979E-2,5.775576830E-2,1.290216446E-1
9.956937671E0,2.230139077E-2,1.319970489E-1,1.231708527E-1
9.967008417E0,4.325849563E-2,1.448896527E-1,8.130359650E-2
9.977048647E0,6.420107186E-2,1.563907862E-1,-5.425834656E-2
9.987088877E0,9.791553020E-2,3.644430637E-2,-3.232135773E-1
9.997129106E0,5.053672194E-2,1.534067988E-1,-5.608062744E-1
1.000716934E1,9.633764625E-2,1.550079584E-1,-5.010843277E-1
1.001720956E1,1.379394680E-1,8.640849590E-2,-3.447647095E-1
1.002728031E1,1.036267206E-1,7.959353924E-2,-6.821250916E-2
1.003732054E1,7.689848542E-2,1.425637603E-1,1.369543076E-1
1.004736077E1,2.165771276E-2,1.129779220E-1,1.173620224E-1
1.005740100E1,2.814655006E-2,4.770624638E-2,-1.689338684E-2
1.006744123E1,-4.283430427E-2,-4.861116409E-3,-1.987133026E-1
1.007748146E1,-4.503785074E-2,-1.169778109E-1,-2.794351578E-1
1.008752169E1,-5.994161963E-2,-2.093111277E-1,-1.680297852E-1
1.009756192E1,-4.853743315E-2,-2.498028278E-1,6.360054016E-3
1.010763266E1,-4.276415706E-2,-2.982596159E-1,1.811981201E-2
1.011767289E1,-2.106724679E-2,-3.585261106E-1,1.547336578E-2
1.012771312E1,-1.109817624E-2,-3.191293478E-1,5.806636810E-2
1.013775335E1,5.645652860E-2,-2.204087973E-1,-4.458236694E-2
1.014779358E1,5.913564563E-2,-1.913026571E-1,-1.689910889E-3
1.015783381E1,1.732631773E-2,-1.238820553E-1,-2.872753143E-2
1.016787404E1,-7.503956556E-3,-1.486469507E-1,1.812772751E-1
1.017794479E1,-1.700596511E-2,-1.518437862E-1,3.575448990E-1
1.018798502E1,4.153000563E-2,-1.601214409E-1,5.023899078E-1
1.019802524E1,-5.015507340E-3,-1.532332897E-1,6.562461853E-1
1.020806548E1,-4.077185690E-2,-1.401300430E-1,5.505847931E-1
1.021810570E1,-2.542363107E-2,-1.163097620E-1,4.223299026E-1
1.022814593E1,-3.732608259E-2,-3.770458698E-2,7.291030884E-2
1.023818616E1,3.018230200E-4,-2.363193035E-2,4.629802704E-2
1.024822639E1,-3.412804008E-2,7.231032848E-2,3.175544739E-2
1.025829714E1,2.139115334E-2,1.874601841E-1,6.079959869E-2
1.026833737E1,3.511500359E-2,1.666394472E-1,-1.813888550E-3
1.027837760E1,1.594261825E-2,1.382417679E-1,-6.662368774E-2
1.028841783E1,-2.284273505E-4,1.212704182E-1,-1.285085678E-1
1.029845806E1,-4.307940602E-3,1.116547585E-1,-4.713439941E-2
1.030849829E1,-1.650527120E-3,1.140580177E-1,6.719875336E-2
1.031853852E1,1.058239490E-2,1.057364941E-1,7.244968414E-2
1.032857874E1,-6.846435368E-3,7.512545586E-2,7.339763641E-2
1.033864949E1,2.418312430E-2,1.235175133E-2,1.145887375E-1
1.034868972E1,4.563019425E-2,-2.074491978E-2,1.105194092E-1
1.035872995E1,7.905721664E-3,-1.456722021E-1,5.781173706E-3
1.036877018E1,-1.340505481E-2,-1.611632109E-1,-1.014518738E-1
1.037881041E1,-5.975024402E-2,-2.263127565E-1,-1.606721878E-1
1.038885064E1,-2.400442958E-2,-3.142771721E-1,-2.148895264E-1
1.039892138E1,1.567170024E-3,-3.453636169E-1,-1.610040665E-1
1.040896161E1,6.177231669E-3,-3.253612518E-1,-1.085071564E-1
1.041900184E1,-1.494403183E-2,-3.216018677E-1,4.101753235E-3
1.042904207E1,2.264675498E-2,-3.515794277E-1,4.493713379E-2
1.043908230E1,7.467553020E-3,-3.437768221E-1,-3.150272369E-2
1.044912253E1,-2.066427469E-2,-3.177951574E-1,-2.467918396E-2
1.045916276E1,3.375396132E-3,-3.406472206E-1,-6.292915344E-2
1.046923351E1,-8.521080017E-3,-3.355154991E-1,-4.436683655E-2
1.047927374E1,-2.102452517E-2,-3.201556206E-1,5.448150635E-2
1.048931397E1,4.581283033E-2,-2.762255669E-1,1.741552353E-1
1.049935420E1,-2.483688295E-2,-2.753853798E-1,1.928968430E-1
1.050939442E1,-2.943764627E-2,-2.787616253E-1,1.234455109E-1
1.051943466E1,-5.529043078E-2,-2.035386562E-1,6.001758575E-2
1.052947488E1,-4.139854014E-2,-1.530327797E-1,2.937793732E-2
1.053951511E1,-4.659113288E-2,-1.393399239E-1,9.191703796E-2
1.054958586E1,-1.325578988E-2,-1.166017056E-1,1.280136108E-1
1.055962609E1,2.277801931E-2,-8.425927162E-2,2.263841629E-1
1.056966632E1,1.760667562E-2,-1.123023033E-2,1.811027527E-1
1.057970655E1,1.096427441E-2,3.923845291E-2,5.895328522E-2
1.058974678E1,-3.087818623E-3,7.990717888E-2,-3.034591675E-2
1.059978701E1,-2.614614367E-2,1.503555775E-1,-1.167774200E-2
1.060982724E1,3.703609109E-3,1.587703228E-1,-6.535053253E-2
1.061986746E1,-8.638903499E-3,1.596348286E-1,6.179809570E-4
1.062993821E1,5.451396108E-3,1.087248325E-1,1.051168442E-1
1.063997844E1,1.793724298E-2,9.632539749E-2,1.546192169E-1
1.065001867E1,3.411188722E-2,7.467985153E-2,1.036710739E-1
1.066005890E1,-1.977343857E-2,6.196022034E-2,5.259704590E-2
1.067009913E1,2.475336194E-2,3.391599655E-2,2.822303772E-2
1.068013936E1,3.553882241E-3,3.986930847E-2,1.045522690E-1
1.069017959E1,1.700465381E-2,6.750822067E-3,6.878757477E-2
1.070021982E1,2.333441377E-2,-4.169726372E-2,-1.209545135E-2
1.071026005E1,4.386638105E-2,-9.960532188E-2,-8.040618896E-2
1.072030028E1,9.652256966E-3,-9.627366066E-2,-7.176589966E-2
1.073037102E1,4.138222337E-2,1.467037201E-2,8.675575256E-3
1.074041125E1,-9.674580395E-2,-1.177144051E-2,-9.239387512E-2
1.075045148E1,-3.634431958E-2,-1.129643917E-1,-2.597713470E-2
1.076049171E1,4.944527149E-2,-1.560776234E-1,5.741310120E-2
1.077053194E1,2.176186442E-2,-1.282002926E-1,7.776641846E-2
1.078057217E1,3.313809633E-3,-1.075778008E-1,4.720687866E-2
1.079061240E1,1.734820008E-2,-8.626317978E-2,-2.690315247E-2
1.080065263E1,1.393444836E-2,-1.174817085E-1,-4.830646515E-2
1.081072338E1,-5.115549266E-2,-1.058981419E-1,4.452705383E-3
1.082076361E1,-4.469834268E-2,-1.081476212E-1,5.257129669E-2
1.083080383E1,-4.304988682E-2,-1.309130192E-1,5.209922791E-3
1.084084406E1,-3.392010927E-3,-1.439528465E-1,-3.731536865E-2
1.085088429E1,-1.123359799E-2,-1.161577702E-1,-3.169059753E-3
1.086092452E1,-3.595420718E-2,-7.487273216E-2,1.115016937E-1
1.087096475E1,2.736854553E-2,-1.857471466E-2,1.371059418E-1
1.088100498E1,3.605860472E-2,-1.601076126E-2,5.469322205E-2
1.089104521E1,5.389827490E-2,-1.657652855E-2,1.995849609E-2
1.090111596E1,5.338519812E-3,2.369332314E-2,-5.063724518E-2
1.091115619E1,4.132851958E-3,6.242537498E-2,-1.566219330E-2
1.092119642E1,7.389783859E-3,1.882934570E-2,1.250600815E-1
1.093123664E1,4.873065650E-2,5.320596695E-2,2.901010513E-1
1.094127687E1,4.415237904E-2,3.379321098E-2,3.542728424E-1
1.095131710E1,6.529904902E-2,1.191329956E-2,3.100118637E-1
1.096135733E1,1.100672781E-2,-2.494311333E-2,2.098264694E-1
1.097139756E1,-4.091978073E-3,-1.609182358E-2,1.975889206E-1
1.098143779E1,5.070984364E-3,2.973365784E-2,9.161567688E-2
1.099147802E1,-5.661860108E-3,5.729103088E-2,7.623672485E-2
1.100151825E1,1.683685184E-2,5.308699608E-2,8.466625214E-2
1.101155848E1,1.256622374E-2,3.673553467E-2,-2.187919617E-2
1.102162923E1,-2.370224893E-2,5.096673965E-3,-5.447673798E-2
1.103166946E1,-3.440821171E-2,2.015113831E-3,-6.558513641E-2
1.104170969E1,-4.999503493E-2,-1.768255234E-2,7.145881653E-3
1.105174992E1,-2.436964214E-2,-5.882740021E-2,1.048469543E-2
1.106179014E1,-1.235884428E-2,-7.812118530E-2,-5.072021484E-2
1.107183037E1,-2.986386418E-3,-9.746241570E-2,-5.752563477E-2
1.108187060E1,-4.553750157E-3,-6.083846092E-2,-8.456039429E-2
1.109191083E1,6.947815418E-4,-5.030632019E-2,-8.583259583E-2
1.110195106E1,2.207571268E-2,-8.701443672E-2,-2.292156219E-2
1.111202181E1,6.616404653E-2,-8.518433571E-2,-1.804542542E-2
1.112206204E1,8.308361471E-2,-9.848761559E-2,1.033334732E-1
1.113210227E1,4.999613017E-2,-6.430912018E-2,1.641798019E-1
1.114214250E1,9.376257658E-3,-9.357857704E-2,6.902694702E-3
1.115218273E1,3.758653998E-2,-1.207602024E-1,-3.281764984E-1
1.116222296E1,4.342983663E-2,-1.684274673E-1,-4.833507538E-1
1.117226318E1,2.106828988E-2,-1.172840595E-1,-5.395498276E-1
1.118230341E1,6.047343463E-2,-1.349627972E-1,-2.717618942E-1
1.119234364E1,1.419135928E-2,-8.159017563E-2,-1.112823486E-1
1.120238387E1,5.312047154E-2,-7.465457916E-2,3.225135803E-2
1.121245462E1,3.085367382E-3,-4.127240181E-2,3.403472900E-2
1.122249485E1,5.167241022E-2,-2.258825302E-2,9.988880157E-2
1.123253508E1,-1.817367971E-2,6.745505333E-2,1.340379715E-1
1.124257531E1,-7.918607444E-3,8.093571663E-2,2.012672424E-1
1.125261554E1,2.455313504E-2,1.066725254E-1,2.513675690E-1
1.126265577E1,-3.825075924E-3,1.321799755E-1,2.387571335E-1
1.127269600E1,-6.933325902E-3,1.335151196E-1,1.089210510E-1
1.128273622E1,-1.312388666E-2,1.607456207E-1,4.137992859E-2
1.129277645E1,2.266326547E-2,1.803222895E-1,-3.518772125E-2
1.130284720E1,-2.955382690E-2,1.322101355E-1,-6.048202515E-2
1.131288743E1,-1.814140379E-2,1.503916979E-1,-1.830387115E-2
1.132292766E1,-1.845503598E-2,1.492737532E-1,-2.586078644E-2
1.133296789E1,-3.038098104E-2,8.578586578E-2,3.022193909E-3
1.134300812E1,-3.801536560E-2,8.662569523E-2,5.344486237E-2
1.135304835E1,-3.160559013E-2,6.882190704E-2,5.614280701E-2
1.136308858E1,-3.426913172E-2,3.235256672E-2,-8.640289307E-4
1.137312881E1,-2.899557538E-2,1.786112785E-2,-7.688808441E-2
1.138316904E1,-4.173716158E-2,2.290451527E-2,3.156566620E-2
1.139320926E1,-6.899586320E-2,2.100706100E-2,1.185693741E-1
1.140328001E1,-6.623113900E-2,-4.421353340E-3,9.556961060E-2
1.141332024E1,-3.274947405E-2,-5.860376358E-2,3.430461884E-2
1.142336047E1,1.089414582E-2,-6.054484844E-2,-4.854297638E-2
1.143340070E1,1.414805092E-2,-5.041825771E-2,-6.190109253E-2
1.144344093E1,3.515359387E-2,-5.363762379E-2,-2.236270905E-2
1.145348116E1,5.308189243E-2,-4.136836529E-2,1.155738831E-1
1.146352139E1,2.755673788E-2,-5.209648609E-2,9.569549561E-2
1.147356162E1,5.690155178E-2,-5.510175228E-2,1.721382141E-3
1.148360185E1,5.373335630E-2,-6.549799442E-2,-6.352233887E-2
1.149364208E1,3.298744559E-2,-2.500891685E-2,2.220726013E-2
1.150371282E1,1.980798505E-2,1.353931427E-2,1.080446243E-1
1.151374179E1,6.266139448E-3,2.348661423E-2,1.197099686E-1
1.152378202E1,2.152221464E-2,-4.286038876E-2,3.568840027E-2
1.153382225E1,6.171027198E-3,-1.147507429E-1,-4.526233673E-2
1.154386247E1,-1.267199591E-2,-1.161416769E-1,-4.222297668E-2
1.155390270E1,-3.592764586E-2,-8.926975727E-2,6.849479675E-2
1.156397345E1,-3.891640902E-2,-6.285107136E-2,1.264772415E-1
1.157401367E1,-2.406173199E-2,-4.440557957E-2,6.224250793E-2
1.158405390E1,-1.346985251E-2,-3.124487400E-2,-4.993343353E-2
1.159409413E1,-2.611339092E-2,2.961158752E-3,-1.525869370E-1
1.160413436E1,-3.410004079E-2,4.473733902E-2,-2.336149216E-1
1.161417458E1,-2.271922678E-2,2.800679207E-2,-1.468276978E-1
1.162421481E1,3.844536468E-2,4.438734055E-2,1.006822586E-1
1.163425504E1,3.937786072E-2,4.897284508E-2,2.644300461E-1
1.164429527E1,4.904135317E-2,3.213584423E-2,3.991193771E-1
1.165436601E1,1.829530671E-2,-4.077994823E-2,2.983369827E-1
1.166440624E1,1.046773344E-1,3.098750114E-2,1.539545059E-1
1.167444647E1,-3.634840250E-3,6.487321854E-2,1.173496246E-2
1.168448670E1,-4.665501416E-3,8.138227463E-2,-3.953170776E-2
1.169452692E1,5.729317665E-3,6.797349453E-2,-3.790283203E-2
1.170456715E1,-2.640174702E-3,5.839633942E-2,-3.123474121E-2
1.171460738E1,1.203540619E-2,8.423674107E-2,-2.905178070E-2
1.172464761E1,-1.122654602E-2,1.137405634E-1,-6.256961823E-2
1.173468784E1,-2.452166006E-2,1.469225883E-1,-3.363132477E-2
1.174475858E1,6.930503994E-3,1.085557938E-1,-1.933097839E-3
1.175479881E1,1.800067909E-2,8.385670185E-2,9.463882446E-2
1.176483904E1,1.381690986E-2,2.950298786E-2,9.803104401E-2
1.177487926E1,-1.161383465E-2,-3.882741928E-2,8.951568604E-2
1.178491949E1,2.619737759E-2,-4.725551605E-2,1.121454239E-1
1.179495972E1,6.498691440E-2,-3.404831886E-2,9.410095215E-2
1.180499995E1,2.336743660E-2,-1.888048649E-2,8.559989929E-2
1.181504017E1,6.829973310E-3,-9.120583534E-3,1.249179840E-1
1.182511092E1,8.352737874E-3,-1.182568073E-2,1.186981201E-1
1.183515115E1,-9.812366217E-3,-3.863120079E-2,5.501270294E-2
1.184519138E1,-1.894546300E-2,-6.688463688E-2,-9.713745117E-2
1.185523160E1,-1.488776505E-2,-6.997704506E-2,-1.871623993E-1
1.186527183E1,-2.695907280E-2,-3.282260895E-2,-1.692132950E-1
1.187531206E1,7.157009095E-3,-2.888214588E-2,-4.321098328E-2
1.188535229E1,2.677758038E-2,-3.053867817E-2,2.551174164E-2
1.189539251E1,-4.591304809E-3,-5.139780045E-2,8.704757690E-2
1.190543274E1,1.169597730E-2,-5.871212482E-2,1.197662354E-1
1.191547297E1,1.979634166E-3,-5.488181114E-2,1.045188904E-1
1.192554371E1,-3.909990191E-4,-1.717400551E-2,5.554294586E-2
1.193558394E1,1.366287097E-2,-1.898515224E-2,6.630420685E-2
1.194562417E1,1.303580031E-2,-4.027116299E-2,5.070590973E-2
1.195566440E1,7.596030831E-3,-2.148067951E-2,3.505706787E-2
1.196570462E1,-3.205128014E-4,-7.503867149E-3,7.448959351E-2
1.197574485E1,-1.534152776E-3,2.107542753E-2,1.091709137E-1
1.198578508E1,-1.226560026E-2,3.025847673E-2,4.568004608E-2
1.199582531E1,6.290744990E-3,5.080175400E-2,3.960990906E-2
1.200586554E1,1.570532657E-2,2.904933691E-2,4.081821442E-2
1.201593628E1,2.050794661E-2,2.019143105E-2,3.973770142E-2
1.202597651E1,3.441880643E-2,3.985023499E-2,6.258869171E-2
1.203601674E1,2.895010263E-2,6.181132793E-2,5.192565918E-2
1.204605696E1,4.444995522E-2,2.982634306E-2,7.857322693E-3
1.205609719E1,1.959212311E-2,1.768964529E-2,4.766368866E-2
1.206613742E1,5.400944501E-2,3.952026367E-3,8.036613464E-2
1.207617765E1,1.007625274E-2,2.352112532E-2,6.278133392E-2
1.208624839E1,1.990217716E-3,1.658695936E-2,1.406669617E-2
1.209628862E1,5.521044135E-3,-7.094264030E-3,3.958129883E-2
1.210632885E1,-1.043593511E-2,-2.102333307E-2,8.427143097E-2
1.211636908E1,2.622922882E-2,-1.482129097E-3,5.474662781E-2
1.212640930E1,-8.132286370E-3,-3.915250301E-3,5.392742157E-2
1.213644953E1,-6.058434024E-2,-3.225040436E-2,-2.824497223E-2
1.214648976E1,5.124584585E-2,-5.358356237E-2,5.476665497E-2
1.215656050E1,1.150252298E-3,-8.379667997E-2,5.165386200E-2
1.216660073E1,5.589076504E-2,-6.626832485E-2,1.262474060E-2
1.217664096E1,-2.425249666E-3,-2.113109827E-2,-1.450920105E-2
1.218668119E1,3.385720402E-2,2.443456650E-2,-1.062450409E-1
1.219672141E1,4.623590969E-3,1.598954201E-2,-3.747940063E-2
1.220676164E1,-2.376689389E-2,3.464597464E-2,-6.954193115E-3
1.221680187E1,4.573888332E-2,1.606643200E-3,1.816711426E-1
1.222684210E1,-1.525912713E-2,-2.961432934E-2,1.667509079E-1
1.223688233E1,-1.765082590E-3,-5.692315102E-2,1.134653091E-1
1.224695307E1,-7.755824365E-3,-3.627312183E-2,1.462049484E-1
1.225699330E1,3.577341884E-2,2.771794796E-3,1.118631363E-1
1.226703353E1,-2.076059207E-2,4.562503099E-2,1.157732010E-1
1.227707375E1,1.068752632E-2,2.680182457E-3,-2.632236481E-2
1.228711398E1,1.906482503E-2,-4.472810030E-2,-1.181001663E-1
1.229715421E1,-3.593031317E-2,-3.291541338E-2,-6.609249115E-2
1.230719444E1,2.699401043E-2,3.399968147E-3,1.010446548E-1
1.231723466E1,1.577680372E-2,2.842217684E-2,2.634420395E-1
1.232730541E1,1.879734173E-2,3.771734238E-2,1.887283325E-1
1.233734564E1,2.407498658E-2,1.632410288E-2,-8.211135864E-3
1.234738587E1,-9.854108095E-3,7.920861244E-4,-1.621294022E-1
1.235742609E1,-1.355816424E-2,-3.329390287E-2,-2.178382874E-1
1.236746632E1,-5.889181513E-3,1.974403858E-3,-1.249523163E-1
1.237750655E1,8.368477225E-3,3.643870354E-3,2.793693542E-2
1.238754678E1,8.580155671E-3,2.773767710E-2,1.952476501E-1
1.239758700E1,2.826162800E-2,3.641670942E-2,2.667303085E-1
1.240762723E1,4.780412093E-2,1.386123896E-2,2.949714661E-1
1.241769798E1,4.933638498E-3,-1.109927893E-2,2.991371155E-1
1.242773820E1,2.152145654E-2,9.704768658E-3,1.595430374E-1
1.243777843E1,-4.546004813E-3,2.186834812E-2,2.946186066E-2
1.244781866E1,-8.935229853E-3,-6.910622120E-3,-2.399826050E-2
1.245785889E1,-4.119459167E-2,-2.736645937E-2,-5.822372437E-2
1.246789912E1,-3.634899855E-3,-1.434987783E-2,-7.794570923E-2
1.247793934E1,-3.747686371E-2,-1.158633828E-2,-4.968643188E-2
1.248797957E1,-4.720132798E-3,-2.297729254E-3,1.937294006E-2
1.249805032E1,8.685251698E-3,2.215224504E-2,4.298591614E-2
1.250809054E1,1.727484539E-2,8.492171764E-3,3.548812866E-2
1.251813077E1,7.454354316E-3,-1.502808928E-2,3.037452698E-2
1.252817100E1,2.715672739E-2,9.125024080E-3,2.525329590E-2
1.253821123E1,1.197022386E-2,-1.663762331E-2,1.775932312E-2
1.254825146E1,2.593441121E-2,7.886499166E-3,7.970046997E-2
1.255829168E1,2.815280110E-2,-7.781356573E-3,1.129398346E-1
1.256833191E1,2.267424017E-2,1.656940579E-2,1.796722412E-1
1.257840266E1,-9.562888183E-3,1.658102870E-2,1.649894714E-1
1.258844288E1,1.512220595E-2,3.915488720E-3,1.407051086E-1
1.259848311E1,-1.973871142E-2,-1.417604089E-2,4.218006134E-2
1.260852334E1,-3.876471426E-3,-2.250799537E-2,-7.308959961E-2
1.261856357E1,3.159299958E-3,-3.601461649E-3,-8.057689667E-2
1.262860379E1,5.486041773E-3,3.691315651E-4,7.782936096E-3
1.263864402E1,1.147935912E-2,6.364703178E-3,1.297445297E-1
1.264868425E1,2.907742001E-2,3.149366379E-2,1.583347321E-1
1.265875499E1,4.192598164E-2,6.031960249E-2,1.581516266E-1
1.266879522E1,1.911121793E-2,8.770933747E-2,1.291866302E-1
1.267883545E1,3.447612748E-2,6.497803330E-2,1.002311707E-1
1.268887568E1,2.370524965E-2,2.353736758E-2,1.215744019E-1
1.269891591E1,1.764433831E-2,1.861223578E-2,1.716728210E-1
1.270895613E1,1.160101313E-2,1.692777872E-2,2.241983414E-1
1.271899636E1,3.791914135E-2,2.796742320E-2,2.887239456E-1
1.272903659E1,1.526496373E-2,3.279843926E-2,4.562387466E-1
1.273907682E1,-1.957120374E-3,5.954539776E-2,5.136375427E-1
1.274914756E1,-3.754924983E-2,8.168414235E-2,5.183734894E-1
1.275918779E1,-1.688260771E-2,5.359122157E-2,3.627042770E-1
1.276922802E1,-4.766147956E-2,4.964292049E-2,1.377038956E-1
1.277926824E1,8.710574359E-3,6.827446818E-2,-7.519531250E-2
1.278930847E1,7.352609187E-3,5.876454711E-2,-1.298761368E-1
1.279934870E1,3.299068660E-2,3.526067734E-2,-1.554584503E-1
1.280938893E1,9.341484308E-2,7.290989161E-2,-3.004703522E-1
1.281942916E1,4.919031262E-2,4.672044516E-2,-3.733377457E-1
1.282949990E1,-7.905852050E-2,-8.350962400E-2,-3.500480652E-1
1.283954013E1,1.057047397E-1,2.155441046E-2,-3.670358658E-1
1.284958036E1,-1.503168643E-1,-9.600889683E-2,-3.835620880E-1
1.285962058E1,-1.398430020E-2,-1.412900090E-1,-2.799701691E-1
1.286966081E1,-1.037568972E-1,-1.415414810E-1,-2.166757584E-1
1.287970104E1,-1.053036600E-1,-1.889383197E-1,-1.364221573E-1
1.288974127E1,-8.354892582E-2,-2.413297892E-1,-2.256393433E-2
1.289978149E1,-1.897625625E-2,-2.810412049E-1,1.698207855E-2
1.290985224E1,-2.143699676E-2,-3.274646401E-1,1.186132431E-1
1.291989247E1,2.113355696E-2,-3.569077253E-1,2.176027298E-1
1.292993270E1,5.050659925E-2,-3.647540212E-1,2.779617310E-1
1.293997292E1,4.385861754E-2,-3.099955916E-1,3.571481705E-1
1.295001315E1,5.918645859E-2,-2.912369370E-1,3.595581055E-1
1.296005338E1,4.169187695E-2,-1.989076138E-1,3.184003830E-1
1.297009361E1,-4.124492407E-3,-1.686068177E-1,3.010120392E-1
1.298013383E1,5.535849929E-2,-7.072377205E-2,3.026199341E-1
1.299017406E1,4.589697719E-2,2.803599834E-2,2.077054977E-1
1.300024481E1,3.630232811E-2,1.237075925E-1,1.181049347E-1
1.301028504E1,6.028765440E-2,2.531456351E-1,6.446456909E-2
1.302032526E1,5.002608895E-2,3.215489388E-1,3.969097137E-2
1.303036549E1,-1.743796468E-2,1.676498652E-1,5.803585052E-2
1.304040572E1,3.706164658E-2,1.377377510E-1,3.734588623E-2
1.305044595E1,1.927961409E-2,1.120098829E-1,6.232643127E-2
1.306048617E1,4.421986639E-2,6.794595718E-2,3.658962250E-2
1.307052640E1,-7.445931435E-3,4.570251703E-2,-4.076480865E-2
1.308056663E1,3.223942220E-2,2.008670568E-2,-7.462406158E-2
1.309063737E1,3.264902532E-2,-2.046966553E-2,-5.316162109E-2
1.310067760E1,2.287328243E-5,-6.238102913E-2,3.551101685E-2
1.311071783E1,3.858846426E-2,-1.311855316E-1,5.499362946E-2
1.312075806E1,-1.054923236E-2,-2.206472158E-1,1.190948486E-2
1.313079829E1,-3.235864639E-2,-2.965899706E-1,-5.543518066E-2
1.314083851E1,-2.340286970E-3,-3.648165464E-1,-1.468973160E-1
1.315087874E1,-3.703586757E-2,-3.690820932E-1,-2.575588226E-1
1.316091897E1,1.670022309E-2,-4.665932655E-1,-1.550922394E-1
1.317098971E1,-5.657203496E-2,-4.598158598E-1,-1.001949310E-1
1.318102994E1,2.594156563E-2,-4.669028521E-1,-6.909942627E-2
1.319107017E1,-5.023756623E-2,-4.253244400E-1,-2.039909363E-3
1.320111040E1,9.767234325E-3,-3.706997633E-1,1.198005676E-2
1.321115062E1,-1.269994676E-2,-3.721299171E-1,4.298210144E-2
1.322119085E1,6.405764073E-2,-3.425338268E-1,-1.443815231E-1
1.323123108E1,4.204604030E-2,-3.469725847E-1,-4.354095459E-2
1.324127131E1,9.920173138E-2,-2.464382648E-1,-3.770542145E-2
1.325134205E1,-5.795581639E-2,-2.562115192E-1,2.686214447E-2
1.326138228E1,2.126896381E-2,-1.784458160E-1,1.623983383E-1
1.327142251E1,1.590226591E-2,-9.834003448E-2,2.162408829E-1
1.328146274E1,-1.760666072E-2,-4.110682011E-2,2.507848740E-1
1.329150296E1,-5.008248985E-2,-2.560555935E-2,2.609004974E-1
1.330154319E1,-5.989727378E-2,-7.277011871E-3,2.276582718E-1
1.331158342E1,-8.221271634E-2,2.148687840E-2,1.343727112E-1
1.332162365E1,-1.137983650E-1,5.404591560E-2,2.663898468E-2
1.333169439E1,-1.535116285E-1,6.426966190E-2,1.016139984E-2
1.334173462E1,-1.262846291E-1,4.395222664E-2,-2.528953552E-2
1.335177485E1,-9.303759038E-2,6.094551086E-2,-9.640216827E-2
1.336181507E1,-2.494318783E-2,7.429707050E-2,-8.350658417E-2
1.337185530E1,-1.521433890E-2,7.381963730E-2,-2.507019043E-2
1.338189553E1,-2.412796021E-3,6.103098392E-2,5.006408691E-2
1.339193576E1,9.680345654E-3,8.774161339E-2,1.106367111E-1
1.340197598E1,7.998690009E-2,8.182895184E-2,1.158618927E-1
1.341201621E1,7.402254641E-2,9.786367416E-3,6.364822388E-3
1.342205644E1,6.748890877E-2,-1.216101646E-2,-9.357261658E-2
1.343212719E1,5.808776617E-2,-3.089857101E-2,-2.096080780E-2
1.344216741E1,1.926095784E-2,-3.443300724E-2,8.773517609E-2
1.345220764E1,5.587667227E-3,-5.794227123E-2,2.800779343E-1
1.346224787E1,1.822866499E-2,-8.136367798E-2,3.211755753E-1
1.347228810E1,-1.408053935E-2,-1.083577871E-1,2.299413681E-1
1.348232832E1,-5.248650908E-3,-1.088836193E-1,9.041118622E-2
1.349236855E1,1.067031920E-2,-1.380454302E-1,-8.307933807E-2
1.350240878E1,4.281759262E-3,-1.470358372E-1,-6.963634491E-2
1.351247953E1,2.014516294E-2,-1.602011919E-1,-1.083135605E-1
1.352251975E1,5.361379683E-2,-1.475691795E-1,-3.083610535E-2
1.353255998E1,3.532332182E-2,-1.070142984E-1,5.659389496E-2
1.354260021E1,-1.114748418E-2,-5.122601986E-2,8.200645447E-2
1.355264044E1,2.237297595E-2,-7.745110989E-2,1.408281326E-1
1.356268066E1,-7.436484098E-3,-8.187699318E-2,1.705503464E-1
1.357272089E1,-3.006260097E-2,-6.693398952E-2,1.328678131E-1
1.358276112E1,-9.519651532E-3,-1.037738323E-1,7.100582123E-2
1.359283186E1,3.173798323E-4,-1.175203323E-1,1.619243622E-2
1.360287209E1,-2.074974775E-2,-7.344079018E-2,-1.029777527E-2
1.361291232E1,-2.560007572E-2,-5.142712593E-2,-4.168510437E-2
1.362295255E1,1.445013285E-2,-2.844047546E-2,-8.723163605E-2
1.363299278E1,4.265710711E-3,-1.149511337E-2,-7.266426086E-2
1.364303300E1,1.723393798E-2,-2.872824669E-2,4.044246674E-2
1.365307323E1,8.673623204E-3,1.044392586E-2,1.978778839E-2
1.366311346E1,1.336739957E-2,2.539038658E-2,6.305694580E-3
1.367315369E1,-3.794406354E-2,-5.055356026E-2,1.923370361E-2
1.368319391E1,-1.722982526E-2,-3.676509857E-2,5.824851990E-2
1.369326466E1,3.051944077E-2,-2.363228798E-2,4.208469391E-2
1.370330489E1,-3.154873848E-3,-5.139207840E-2,6.605720520E-2
1.371334511E1,2.597965300E-2,-7.105922699E-2,1.232366562E-1
1.372338534E1,-6.479769945E-3,-3.719854355E-2,9.389877319E-2
1.373342557E1,-2.889695764E-2,-6.180238724E-2,9.547424316E-2
1.374346580E1,-1.742163301E-2,-6.766653061E-2,1.185159683E-1
1.375350602E1,-2.162933350E-2,-3.066658974E-2,1.464462280E-2
1.376354625E1,1.166701317E-3,-4.121685028E-2,-4.124259949E-2
1.377358648E1,2.791675925E-2,-4.086303711E-2,-2.022075653E-2
1.378362671E1,1.390045881E-2,-1.647186279E-2,3.781318665E-3
1.379366694E1,1.632362604E-3,-7.298231125E-3,1.856136322E-2
1.380373768E1,-2.806313336E-2,1.931190491E-5,-3.117370605E-2
1.381377791E1,-1.410394907E-3,1.957964897E-2,-6.409645081E-2
1.382381814E1,-8.883625269E-3,4.602813721E-2,-3.483963013E-2
1.383385837E1,-8.095175028E-3,3.832006454E-2,8.043766022E-2
1.384389859E1,-4.445761442E-2,-2.274703979E-2,9.258174896E-2
1.385393882E1,6.414502859E-3,-8.899450302E-2,5.193424225E-2
1.386397905E1,2.298437059E-2,-1.045906544E-1,-2.454471588E-2
1.387401928E1,1.601454616E-2,-6.294250488E-2,-1.964759827E-2
1.388405950E1,1.034171879E-2,-4.930543900E-2,-2.410602570E-2
1.389413025E1,6.267592311E-3,-8.659243584E-2,-6.399059296E-2
1.390417048E1,6.319519877E-2,-5.472469330E-2,-1.584291458E-1
1.391421070E1,6.431145966E-2,-6.836009026E-2,-1.804428101E-1
1.392425093E1,7.474777102E-2,-5.586194992E-2,-6.840419769E-2
1.393429116E1,6.722824275E-2,-6.547975540E-2,1.111392975E-1
1.394433139E1,4.100129008E-2,-6.993865967E-2,2.477359772E-1
1.395437162E1,1.963458955E-2,-9.560084343E-2,2.785024643E-1
1.396441184E1,-2.003288269E-2,-1.414983273E-1,2.246246338E-1
1.397448259E1,-3.396220505E-2,-9.424781799E-2,1.126670837E-1
1.398452282E1,-1.625312865E-2,-7.327723503E-2,7.673740387E-2
1.399456304E1,-5.742311478E-3,-2.219247818E-2,5.252456665E-2
1.400460327E1,1.358017325E-2,1.471281052E-2,4.404067993E-3
1.401464350E1,1.737289131E-2,-7.416009903E-3,-4.351997375E-2
1.402468373E1,1.772752404E-2,-2.348327637E-2,-1.929664612E-2
1.403472395E1,1.046894491E-2,-2.528810501E-2,1.272583008E-2
1.404476418E1,2.480934560E-2,-3.355574608E-2,7.847785950E-2
1.405480441E1,3.950281441E-2,-2.265119553E-2,5.328559875E-2
1.406484464E1,4.099567235E-2,6.284952164E-3,-2.004718781E-2
1.407491538E1,-1.426953077E-2,-4.433393478E-3,5.233287811E-2
1.408495561E1,2.025268972E-2,-9.656190872E-3,1.290216446E-1
1.409499584E1,2.335901558E-2,-5.271482468E-2,2.027902603E-1
1.410503607E1,7.755115628E-3,-5.761051178E-2,1.370115280E-1
1.411507629E1,4.849240184E-3,-7.241845131E-2,-1.325607300E-3
1.412511652E1,-1.273573935E-2,-5.030870438E-2,1.317501068E-2
1.413518727E1,-7.321029902E-2,-1.452708244E-2,1.855068207E-1
1.414522749E1,8.891507983E-3,-5.750656128E-2,1.072311401E-2
1.415526772E1,-1.687680185E-2,-8.420920372E-2,-4.448699951E-2
1.416530795E1,-1.910005510E-2,-1.766443253E-2,-2.057456970E-1
1.417534818E1,3.383161128E-2,-4.680633545E-3,-1.110649109E-1
1.418538841E1,1.257959008E-2,5.096483231E-2,4.335403442E-2
1.419542863E1,7.768489420E-2,2.985978127E-2,1.474637985E-1
1.420546886E1,3.763397038E-2,2.848768234E-2,-5.298042297E-2
1.421550909E1,7.871437073E-2,8.466243744E-3,-1.988735199E-1
1.422557983E1,-7.617890835E-3,7.076978683E-3,-2.060480118E-1
1.423562006E1,8.090063930E-3,6.163835526E-3,-9.339332581E-2
1.424566029E1,1.129832864E-2,3.113031387E-3,1.318540573E-1
1.425570052E1,-9.220063686E-3,-3.195762634E-2,1.892814636E-1
1.426574074E1,-5.255839229E-2,-5.504512787E-2,4.977989197E-2
1.427578097E1,-8.073629439E-2,-6.989979744E-2,-9.068679810E-2
1.428582120E1,-1.039597690E-1,-2.287983894E-2,-1.809453964E-1
1.429586143E1,-4.802475870E-2,2.275633812E-2,-1.727466583E-1
1.430593217E1,-9.175017476E-3,3.236532211E-3,-3.629684448E-3
1.431597240E1,-1.598580182E-2,-2.185416222E-2,7.254791260E-2
1.432601263E1,3.509338200E-2,-2.017188072E-2,4.351425171E-2
1.433605286E1,5.414906144E-2,-7.120132446E-3,2.150344849E-2
1.434609308E1,5.035415292E-2,-3.559994698E-2,8.306789398E-2
1.435613331E1,4.686343670E-2,-2.951145172E-2,5.328941345E-2
1.436617354E1,6.619574130E-2,-3.614282608E-2,1.374912262E-2
1.437621377E1,5.433263630E-2,-5.549049377E-2,-9.193420410E-3
1.438625399E1,5.936903507E-2,-7.701897621E-2,-1.302146912E-1
1.439632474E1,-1.339189708E-2,-3.822803497E-2,-1.175918579E-1
1.440636497E1,1.004852355E-2,-6.590676308E-2,-2.077426910E-1
1.441640519E1,1.518542320E-2,-7.523345947E-2,-1.855192184E-1
1.442644542E1,8.438043296E-3,-8.799171448E-2,-3.183269501E-2
1.443648565E1,2.684558183E-2,-8.216953278E-2,1.522865295E-1
1.444652588E1,6.047049165E-2,-5.678534508E-2,2.497730255E-1
1.445656610E1,8.343360573E-2,6.155729294E-3,2.962932587E-1
1.446663685E1,1.113080382E-1,9.294486046E-2,2.609138489E-1
1.447667708E1,-2.724449337E-2,-1.203107834E-2,1.412420273E-1
1.448671731E1,1.044191271E-1,9.725499153E-2,1.022672653E-1
1.449675753E1,-2.731518447E-2,1.163716316E-1,1.398086548E-3
1.450679776E1,-5.902111530E-3,1.522200108E-1,-5.980491638E-3
1.451683799E1,1.507326216E-2,1.143188477E-1,-4.932403564E-3
1.452687822E1,-9.354360402E-3,1.369608641E-1,-8.933353424E-2
1.453691844E1,-8.871033788E-4,1.577867270E-1,4.432296753E-2
1.454695867E1,-3.491692990E-2,1.193627119E-1,1.738815308E-1
1.455702942E1,-5.820285529E-2,9.655821323E-2,9.785461426E-2
1.456706965E1,-1.797853410E-2,6.246984005E-2,-4.022979736E-2
1.457710987E1,-2.293467522E-3,3.530442715E-2,-1.639461517E-1
1.458715010E1,3.487855196E-3,3.943610191E-2,-1.870317459E-1
1.459719033E1,-1.875966787E-3,2.085912228E-2,-1.092872620E-1
1.460723056E1,1.017292589E-2,2.169013023E-3,-1.431560516E-2
1.461727078E1,-1.216378808E-2,-9.007978439E-2,1.310853958E-1
1.462731101E1,2.674420737E-2,-1.371018887E-1,2.453336716E-1
1.463735124E1,-2.312559634E-2,-2.024673223E-1,2.156581879E-1
1.464742199E1,-3.101758659E-2,-1.943395138E-1,1.480283737E-1
1.465746221E1,-1.417984441E-2,-1.569436789E-1,2.023124695E-2
1.466750244E1,-5.001786724E-2,-1.818127632E-1,-9.165191650E-2
1.467754267E1,-4.267494753E-2,-1.473813057E-1,-9.105110168E-2
1.468758290E1,-5.316390842E-2,-1.062238216E-1,-4.455471039E-2
1.469762312E1,-2.448724583E-2,-8.070862293E-2,2.331733704E-2
1.470766335E1,-1.384286582E-2,-4.856824875E-2,5.044937134E-2
1.471773410E1,-4.334235191E-2,-2.560019493E-3,7.037258148E-2
1.472777432E1,-2.361547947E-2,1.701438427E-2,6.399726868E-2
1.473781455E1,-1.418840885E-2,-7.669925690E-4,3.628730774E-2
1.474785478E1,-2.627129108E-2,-3.318786621E-4,3.999423981E-2
1.475789501E1,-4.294402897E-4,5.352139473E-2,4.147148132E-2
1.476793524E1,5.983915180E-3,6.927609444E-2,1.056575775E-1
1.477797546E1,-4.775315523E-3,7.623779774E-2,1.101436615E-1
1.478801569E1,1.068083011E-2,8.812272549E-2,1.027078629E-1
1.479805592E1,4.161000624E-2,4.825747013E-2,1.002388000E-1
1.480812666E1,-2.194806933E-3,6.359648705E-2,9.782505035E-2
1.481816689E1,-1.163436845E-2,4.321229458E-2,5.716323853E-2
1.482820712E1,8.569829166E-3,4.445350170E-2,-5.049419403E-2
1.483824735E1,2.168476582E-3,5.034494400E-2,-6.716632843E-2
1.484828757E1,9.865567088E-3,5.528366566E-2,-3.094482422E-2
1.485832780E1,-5.060303956E-3,8.159160614E-2,2.921009064E-2
1.486836803E1,4.132799804E-2,8.231413364E-2,2.005672455E-2
1.487840826E1,2.040053718E-2,3.747034073E-2,1.687049866E-3
1.488844849E1,8.966661990E-4,1.264524460E-2,-1.654148102E-2
1.489851923E1,-3.726854920E-4,-6.752848625E-3,-7.296657562E-2
1.490855946E1,-1.118656248E-3,8.134603500E-3,-2.392673492E-2
1.491859968E1,9.581539780E-3,-1.710987091E-2,1.083374023E-2
1.492863991E1,1.350087300E-2,-7.017278671E-2,8.880901337E-2
1.493868014E1,2.029983327E-2,-6.246781349E-2,1.354541779E-1
1.494872037E1,1.103823632E-2,-5.667722225E-2,9.564590454E-2
1.495876060E1,-2.304339036E-2,-3.632187843E-2,8.667564392E-2
1.496883134E1,1.575742662E-2,-6.772112846E-2,8.470439911E-2
1.497887157E1,-4.279714078E-3,-6.895637512E-2,5.390739441E-2
1.498891180E1,-2.791594714E-3,-6.100165844E-2,2.549171448E-2
1.499895202E1,1.486461237E-2,-3.391933441E-2,3.781127930E-2
1.500899225E1,7.954236120E-3,-6.685340405E-2,9.747505188E-3
1.501903248E1,-5.090300739E-2,-2.987360954E-2,2.007389069E-2
1.502907271E1,-1.616403461E-4,-2.311837673E-2,4.968166351E-2
1.503911294E1,-4.285462201E-3,-6.320607662E-2,8.661651611E-2
1.504915316E1,-2.342742682E-2,-2.411663532E-2,7.091045380E-2
1.505922391E1,-9.770490229E-3,-2.147066593E-2,7.909107208E-2
1.506926414E1,-3.467018157E-2,-1.673698425E-2,7.288265228E-2
1.507930436E1,1.663646847E-2,8.823037148E-3,5.702590942E-2
1.508934459E1,1.072160900E-3,3.097021580E-2,6.740665436E-2
1.509938482E1,5.364760756E-3,3.041553497E-2,3.935432434E-2
1.510942505E1,2.744559571E-2,3.637635708E-2,-2.467155457E-2
1.511946527E1,3.207416460E-2,2.589607239E-2,-5.512237549E-2
1.512950550E1,1.414375007E-2,7.062327862E-2,-6.878089905E-2
1.513957625E1,2.605219185E-2,3.511500359E-2,-4.159355164E-2
1.514961648E1,-4.733636975E-3,6.513917446E-2,1.126060486E-1
1.515965670E1,6.540678442E-2,4.132378101E-2,1.616106033E-1
1.516969693E1,3.385726362E-3,-5.715012550E-3,1.556482315E-1
1.517973716E1,4.739816114E-2,-1.545870304E-2,-3.630638123E-3
1.518977739E1,1.151997223E-2,-2.055901289E-2,4.691123962E-3
1.519981761E1,-8.416175842E-5,-1.801770926E-2,-3.480529785E-2
1.520985784E1,-4.407167435E-4,-2.668857574E-2,4.792213440E-3
1.521992859E1,-2.552440763E-2,-1.580643654E-2,-1.423110962E-1
1.522996882E1,2.574587055E-2,-1.381927729E-2,-9.301090240E-2
1.524000904E1,1.021501422E-2,-2.278459072E-2,7.371234894E-2
1.525004927E1,2.462286502E-3,-2.853441238E-2,2.788324356E-1
1.526008950E1,-2.194631845E-3,-3.850495815E-2,2.084579468E-1
1.527012972E1,-2.883494273E-2,-7.983243465E-2,2.292537689E-2
1.528016995E1,-2.932660654E-2,-1.129828691E-1,-1.579313278E-1
1.529021018E1,-3.465788439E-2,-8.069050312E-2,-2.357454300E-1
1.530025041E1,-2.017787099E-2,-4.595619440E-2,-1.433334351E-1
1.531032115E1,-3.016214818E-3,-6.194710732E-3,7.621574402E-2
1.532036138E1,-7.584691048E-5,1.807856560E-2,2.360286713E-1
1.533040161E1,3.136400878E-2,3.435027599E-2,3.311309814E-1
1.534044184E1,3.862740099E-2,-1.012980938E-3,2.224102020E-1
1.535048207E1,-4.343677312E-3,-1.068437099E-2,9.189891815E-2
1.536052229E1,1.825567894E-2,-1.470458508E-2,6.767272949E-3
1.537056252E1,-6.259571761E-3,-2.132219076E-2,-1.850605011E-2
1.538060275E1,-7.021963596E-3,3.459399939E-2,-1.020908356E-2
1.539064298E1,-3.947176039E-3,6.249338388E-2,2.962112427E-3
1.540071372E1,-6.174609065E-3,1.999050379E-2,9.089469910E-3
1.541075395E1,-1.680007577E-2,4.992729425E-2,-1.474380493E-3
1.542079418E1,1.060136408E-2,5.409616232E-2,-3.352642059E-2
1.543083440E1,-3.443714231E-3,1.713031530E-2,-6.303024292E-2
1.544087463E1,5.780532956E-4,-1.573532820E-2,-2.536582947E-2
1.545091486E1,1.913554966E-3,-1.341706514E-2,-2.588462830E-2
1.546095509E1,-9.895525873E-4,-3.611749411E-2,-1.672744751E-2
1.547099532E1,6.448742002E-3,-1.727235317E-2,-7.504463196E-3
1.548103554E1,2.174552903E-2,1.604491472E-2,8.913040161E-3
1.549110629E1,4.147958010E-2,-3.453195095E-3,3.011131287E-2
1.550114652E1,2.170573175E-2,4.422903061E-3,1.709241867E-1
1.551118674E1,1.989673451E-2,-2.264863253E-2,2.589712143E-1
1.552122697E1,3.766069189E-3,-1.605868340E-2,2.080116272E-1
1.553126720E1,-1.935964264E-2,-5.938601494E-2,-1.305675507E-2
1.554130743E1,-1.250196248E-3,-6.047606468E-2,-1.790952682E-1
1.555134765E1,1.238542143E-2,-5.065476894E-2,-1.822261810E-1
1.556138788E1,-1.223294809E-2,-4.561972618E-2,-4.872703552E-2
1.557142811E1,-3.506993875E-3,2.925395966E-4,2.029132843E-2
1.558149885E1,1.032522600E-2,2.319937944E-2,4.627609253E-2
1.559153908E1,-5.161972716E-3,1.745676994E-2,-4.347801208E-3
1.560157931E1,-6.794944406E-3,3.482216597E-2,5.511665344E-2
1.561161954E1,-2.049791627E-2,2.791768312E-2,1.073827744E-1
1.562165977E1,-2.683451027E-2,1.317042112E-2,1.715888977E-1
1.563169999E1,2.765364014E-3,1.395338774E-2,1.232042313E-1
1.564174022E1,5.504818633E-2,5.833745003E-3,6.275844574E-2
1.565181097E1,-7.299309969E-2,-1.211625338E-2,-4.867553711E-3
1.566185119E1,1.177211571E-2,-1.054590940E-2,6.544113159E-3
1.567189142E1,-1.282899920E-2,-9.835720062E-3,-3.499031067E-3
1.568193165E1,8.763330057E-3,1.561498642E-2,5.661964417E-3
1.569197188E1,-2.380234934E-2,1.330623031E-2,4.121494293E-2
1.570201211E1,4.607036710E-2,2.172946930E-3,7.202243805E-2
1.571205233E1,6.894769613E-3,1.057824492E-2,4.778766632E-2
1.572209256E1,1.850641333E-3,4.672199488E-3,7.383728027E-2
1.573213279E1,1.099339686E-2,2.008765936E-2,6.396770477E-2
1.574217302E1,5.455073901E-3,-3.059953451E-3,2.775382996E-2
1.575224376E1,-3.634113818E-3,2.441704273E-3,1.547908783E-2
1.576228399E1,5.442035384E-3,-1.109722257E-2,3.212928772E-3
1.577232422E1,7.377052680E-3,-1.226744056E-2,-1.860809326E-2
1.578236444E1,-6.954003125E-3,-2.485603094E-2,-4.487037659E-3
1.579240467E1,-2.080481686E-2,-2.510520816E-2,6.232643127E-2
1.580244490E1,-2.957066335E-2,-2.285674214E-2,8.605289459E-2
1.581248513E1,-1.614075899E-2,-3.275075555E-2,7.146835327E-2
1.582252536E1,-2.331674285E-2,-4.056018591E-2,5.687522888E-2
1.583256558E1,-6.314618513E-3,-3.453013301E-2,5.902481079E-2
1.584260581E1,-1.155477762E-2,-2.640596032E-2,1.114416122E-1
1.585264604E1,-1.743317582E-2,-3.498032689E-2,1.111907959E-1
1.586271678E1,-2.156566828E-3,-1.506614685E-2,1.109323502E-1
1.587275701E1,-8.202098310E-3,-2.102255821E-3,1.322364807E-1
1.588279724E1,-1.335282624E-2,-1.002079248E-2,1.248445511E-1
1.589283747E1,-1.685868949E-3,-1.714798808E-2,1.893110275E-1
1.590287769E1,4.888817668E-3,-2.086681128E-2,2.873382568E-1
1.591291792E1,-2.690363303E-2,1.234883070E-2,3.614625931E-1
1.592295815E1,-1.535642520E-2,2.696257830E-2,3.781490326E-1
1.593299838E1,-1.016293466E-2,3.309372067E-2,2.871427536E-1
1.594306912E1,-4.013530910E-3,2.418351173E-2,1.459264755E-1
1.595310935E1,4.750750959E-3,4.012000561E-2,-2.867889404E-2
1.596314958E1,1.979389787E-2,5.604410172E-2,-1.600065231E-1
1.597318980E1,3.540069610E-2,7.276049256E-2,-2.839288712E-1
1.598323003E1,5.740822107E-2,6.464776397E-2,-3.333501816E-1
1.599327026E1,6.365995109E-2,4.839584231E-2,-3.655738831E-1
1.600331049E1,5.083800107E-2,1.014497876E-2,-3.136997223E-1
1.601335072E1,1.588091254E-2,-4.966193438E-2,-2.448301315E-1
1.602342146E1,8.535124362E-3,-9.131783247E-2,-1.374492645E-1
1.603346169E1,-8.612591773E-3,-1.398593187E-1,1.318645477E-2
1.604350192E1,-1.496346667E-2,-1.696850061E-1,3.705596924E-2
1.605354214E1,-2.882725000E-2,-2.058533430E-1,-6.063461304E-3
1.606358237E1,-3.240443766E-3,-2.482907772E-1,1.070594788E-2
1.607362260E1,-7.266327739E-4,-1.668168902E-1,5.872821808E-2
1.608366283E1,1.956310123E-2,-1.092314720E-1,3.719997406E-2
1.609373357E1,3.104511276E-2,-9.489619732E-2,1.010150909E-1
1.610377380E1,6.287249923E-2,-4.403591156E-2,9.205532074E-2
1.611381403E1,5.853077769E-2,3.559321165E-2,6.284904480E-2
1.612385426E1,2.526056767E-2,8.160835505E-2,6.599998474E-2
1.613389448E1,6.018892676E-2,7.602775097E-2,4.503154755E-2
1.614393471E1,-1.110665202E-1,1.634385586E-1,2.982902527E-1
1.615397494E1,-3.077436239E-2,1.877743006E-1,4.657955170E-1
1.616404568E1,-1.205387339E-1,1.848193407E-1,3.624486923E-1
1.617408591E1,-1.473239064E-2,1.338643432E-1,1.990051270E-1
1.618412614E1,-1.211258620E-1,1.493344903E-1,5.226802826E-2
1.619416637E1,-3.283838183E-2,2.258759737E-1,-1.158657074E-1
1.620420660E1,-5.983398110E-2,2.863593698E-1,-8.011341095E-2
1.621424682E1,-1.726759970E-2,3.121033311E-1,-3.203392029E-3
1.622431757E1,1.989424229E-3,2.849307060E-1,1.228837967E-1
1.623435780E1,1.550338417E-2,2.221359015E-1,1.932992935E-1
1.624439802E1,-3.254586458E-2,2.043664455E-1,2.014970779E-1
1.625443825E1,-4.675690085E-2,1.858371496E-1,1.584959030E-1
1.626447848E1,-4.543446749E-2,1.525036097E-1,5.800914764E-2
1.627451871E1,-5.902834982E-2,1.350994110E-1,-4.241943359E-3
1.628458945E1,-7.372615486E-2,1.216738224E-1,-8.301734924E-2
1.629462968E1,-8.502167463E-2,7.191169262E-2,-1.067323685E-1
1.630466991E1,-6.427243352E-2,4.388070107E-2,-8.967399597E-2
1.631471014E1,-2.495576441E-2,-7.048487663E-3,-1.370763779E-1
1.632475036E1,-3.154921532E-2,-6.582880020E-2,-1.410789490E-1
1.633479059E1,-4.179093242E-2,-8.591651917E-2,-6.116390228E-2
1.634486134E1,3.138035536E-4,-9.530329704E-2,2.136325836E-2
1.635490156E1,-1.687600464E-2,-7.389235497E-2,6.764221191E-2
1.636494179E1,-2.553686500E-4,-1.277365685E-1,4.474735260E-2
1.637498202E1,3.161887825E-2,-1.576586962E-1,7.456398010E-2
1.638502225E1,2.472940087E-2,-1.154263020E-1,6.745624542E-2
1.639506247E1,1.592814922E-2,-9.025824070E-2,8.866405487E-2
1.640510270E1,-5.855940282E-3,-8.612430096E-2,1.215562820E-1
1.641514293E1,1.517230272E-2,-6.612420082E-2,1.279802322E-1
1.642521367E1,3.699511290E-4,-8.158230782E-2,8.660507202E-2
1.643525390E1,5.236275494E-3,-5.845010281E-2,2.613925934E-2
1.644529413E1,-1.074422151E-2,-1.089179516E-2,-1.507282257E-2
1.645533436E1,-2.396218479E-3,-1.926088333E-2,-5.122756958E-2
1.646537459E1,-8.860081434E-4,5.006265640E-2,1.337337494E-2
1.647541481E1,-2.700380981E-3,1.122575998E-1,1.282730103E-1
1.648545504E1,2.246566117E-2,1.517734528E-1,2.413930893E-1
1.649549527E1,1.392398775E-2,2.066308260E-1,2.034711838E-1
1.650553550E1,-3.578941524E-2,2.291543484E-1,8.714199066E-2
1.651560624E1,-9.379006922E-3,2.304369211E-1,1.986503601E-3
1.652564647E1,-4.724547267E-3,2.102850676E-1,-7.690429688E-3
1.653568670E1,-1.539529860E-2,2.021925449E-1,2.370452881E-2
1.654572692E1,1.127763838E-2,1.541191339E-1,-4.409885406E-2
1.655576715E1,-4.035010934E-3,1.285178661E-1,-6.341552734E-2
1.656580738E1,1.355834305E-3,9.051752090E-2,2.338790894E-2
1.657587813E1,-5.910500884E-3,8.695697784E-2,2.179527283E-2
1.658591835E1,-5.619754642E-2,5.771183968E-2,-1.076889038E-2
1.659595858E1,-5.361761898E-2,9.484529495E-3,3.335094452E-2
1.660599881E1,-2.892743796E-2,-1.707553864E-2,7.993221283E-2
1.661603904E1,-4.873174429E-2,-5.762696266E-3,8.099365234E-2
1.662607926E1,-1.779265702E-2,-3.064393997E-2,5.331230164E-2
1.663615001E1,-5.983859301E-3,-5.300450325E-2,4.245185852E-2
1.664619024E1,-1.361697912E-2,-5.572569370E-2,-4.968357086E-2
1.665623046E1,-4.469122738E-2,-8.997082710E-2,-7.913780212E-2
1.666627069E1,-3.147312254E-2,-1.244283915E-1,9.186744690E-3
1.667631092E1,-2.702787519E-2,-1.055725813E-1,3.494834900E-2
1.668635115E1,-8.237041533E-3,-9.564065933E-2,7.474231720E-2
1.669642189E1,-1.998953521E-2,-9.798848629E-2,1.283702850E-1
1.670646212E1,-2.431868762E-2,-4.724454880E-2,1.002254486E-1
1.671650235E1,-6.384836137E-2,-2.218794823E-2,3.586864471E-2
1.672654258E1,4.873730242E-2,-3.387236595E-2,-2.862834930E-2
1.673658280E1,-1.105204970E-2,-6.383848190E-2,-2.588748932E-2
1.674662303E1,1.597404480E-4,-2.334809303E-2,2.496147156E-2
1.675669378E1,5.046896636E-3,2.278566360E-2,1.143321991E-1
1.676673400E1,1.008318365E-2,4.022192955E-2,1.917648315E-1
1.677677423E1,-2.069696039E-2,5.620670319E-2,2.521505356E-1
1.678681446E1,3.233358264E-3,6.194210052E-2,2.233018875E-1
1.679685469E1,-6.801858544E-4,7.174563408E-2,7.221412659E-2
1.680689492E1,-8.829221129E-3,9.984207153E-2,-1.240110397E-1
1.681696566E1,-3.184918314E-2,1.102957726E-1,-1.139926910E-1
1.682700589E1,-9.239807725E-3,1.181514263E-1,2.102947235E-2
1.683704612E1,-5.082383752E-3,1.242725849E-1,1.102075577E-1
1.684708634E1,2.837498486E-2,7.559156418E-2,1.401576996E-1
1.685712657E1,1.598663628E-2,-3.371000290E-3,5.246162415E-2
1.686716680E1,7.466390729E-3,-3.594756126E-2,4.105091095E-2
1.687720703E1,-2.136930823E-2,-5.571055412E-2,1.489963531E-1
1.688724725E1,-2.205190808E-2,-5.498337746E-2,1.513595581E-1
1.689731800E1,2.895998955E-2,-9.664273262E-2,5.280590057E-2
1.690735823E1,-1.040424407E-2,-9.905409813E-2,-5.369186401E-3
1.691739846E1,-5.672961473E-3,-6.469678879E-2,-4.236698151E-2
1.692743868E1,-4.669778049E-3,-1.920890808E-2,1.140499115E-2
1.693747891E1,3.453642130E-3,-1.880788803E-2,2.544155121E-1
1.694751914E1,1.425288618E-2,-8.626222610E-3,4.376239777E-1
1.695755937E1,7.073536515E-3,-2.213954926E-3,4.409637451E-1
1.696763011E1,-5.440197885E-3,-1.996946335E-2,2.497787476E-1
1.697767034E1,2.159859985E-2,2.206587791E-2,2.451515198E-2
1.698771057E1,-9.405598044E-3,7.945871353E-2,-1.957340240E-1
1.699775080E1,1.342333108E-2,9.943127632E-2,-1.973543167E-1
1.700779102E1,2.074453235E-2,1.332743168E-1,-1.381187439E-1
1.701783125E1,1.551583409E-3,1.605792046E-1,-2.126598358E-2
1.702787148E1,1.936450601E-3,1.467838287E-1,5.058479309E-2
1.703791171E1,-1.858319342E-2,1.127693653E-1,1.113777161E-1
1.704798245E1,-3.353744745E-2,1.112809181E-1,8.280181885E-2
1.705802268E1,-5.015908182E-2,5.225825310E-2,-3.678321838E-2
1.706806291E1,-5.103951693E-2,1.256680489E-2,-4.380035400E-2
1.707810313E1,-3.144298494E-2,-3.104925156E-2,-2.905845642E-2
1.708814336E1,1.791521907E-3,-7.590889931E-2,3.624820709E-2
1.709818359E1,1.838564873E-3,-5.418181419E-2,5.118846893E-2
1.710822382E1,3.745571524E-2,-1.055681705E-1,5.205154419E-2
1.711826404E1,1.892362535E-2,-1.116662025E-1,1.336994171E-1
1.712833479E1,4.510854185E-2,-7.951807976E-2,1.476974487E-1
1.713837502E1,2.384647727E-2,-5.021929741E-2,1.490182877E-1
1.714841525E1,-4.526473582E-3,-6.458020210E-2,1.639633179E-1
1.715845547E1,-2.572974563E-2,-1.031064987E-2,-2.958869934E-2
1.716849570E1,1.327211410E-2,1.247191429E-2,-4.605484009E-2
1.717853593E1,-4.779027402E-2,7.938742638E-2,-6.943798065E-2
1.718857616E1,4.620911181E-2,6.845664978E-2,4.154396057E-2
1.719864690E1,-1.213656366E-2,1.029064655E-1,1.716623306E-1
1.720868713E1,4.622699693E-2,1.166396141E-1,2.451343536E-1
1.721872736E1,1.091506332E-2,1.342077255E-1,2.441444397E-1
1.722876758E1,5.562820286E-2,1.477506161E-1,1.433696747E-1
1.723880781E1,-4.820987582E-3,1.345956326E-1,-4.722785950E-2
1.724884804E1,9.019210935E-3,1.056387424E-1,1.381206512E-2
1.725888827E1,7.946163416E-3,5.702018738E-2,-5.874252319E-2
1.726892850E1,2.007201314E-3,3.156185150E-2,-1.093311310E-1
1.727899924E1,2.424499393E-2,-1.889252663E-2,-8.535289764E-2
1.728903947E1,-2.301456034E-2,-1.593732834E-2,1.304626465E-2
1.729907970E1,-1.198552549E-3,-3.521776199E-2,8.014869690E-2
1.730911992E1,-3.472285718E-2,-6.719040871E-2,6.743526459E-2
1.731916015E1,-4.358884692E-2,-7.545256615E-2,-2.735614777E-2
1.732920038E1,-5.331379175E-2,-9.954857826E-2,-7.702064514E-2
1.733924061E1,-3.886554390E-2,-1.219267845E-1,-1.077060699E-1
1.734931135E1,-3.180577606E-2,-1.194381714E-1,-7.413482666E-2
1.735935158E1,7.803492248E-3,-8.596825600E-2,-5.327224731E-3
1.736939181E1,8.613720536E-3,-8.500456810E-2,1.014213562E-1
1.737943204E1,2.372901142E-2,-6.186866760E-2,1.119422913E-1
1.738947226E1,-4.059627652E-3,-3.155779839E-2,4.044151306E-2
1.739951249E1,6.195232272E-3,5.321264267E-3,-1.293773651E-1
1.740958324E1,-4.406109452E-3,1.904773712E-2,-2.271480560E-1
1.741962346E1,-9.713605046E-3,1.068935394E-1,-1.064434052E-1
1.742966369E1,1.346675307E-2,1.033360958E-1,5.546855927E-2
1.743970392E1,3.850907087E-2,1.357707977E-1,1.958475113E-1
1.744974415E1,6.538179517E-2,1.329138279E-1,2.088747025E-1
1.745978437E1,5.368386209E-2,1.439418793E-1,1.253995895E-1
1.746985512E1,6.086139381E-2,1.614699364E-1,4.947757721E-2
1.747989535E1,4.311560094E-2,1.044747829E-1,1.958847046E-2
1.748993558E1,4.123627394E-2,8.704781532E-2,4.030513763E-2
1.749997580E1,3.749161214E-2,7.670474052E-2,-3.654384613E-2
1.751001603E1,2.074021846E-2,-1.321148872E-2,-1.057262421E-1
1.752005626E1,3.539250791E-2,-6.670713425E-3,-1.412086487E-1
1.753012700E1,3.531002253E-2,4.344940186E-3,-1.156425476E-2
1.754016723E1,1.764311641E-2,-2.162456512E-3,1.873235703E-1
1.755020746E1,4.840908945E-2,-1.277446747E-2,1.817178726E-1
1.756024769E1,5.338671058E-2,-2.989649773E-2,-6.188678741E-2
1.757028791E1,5.509929731E-2,1.457595825E-2,-2.487363815E-1
1.758032814E1,3.820657730E-2,1.764345169E-2,-3.016500473E-1
1.759036837E1,2.673174068E-2,5.426716805E-2,-1.127052307E-1
1.760040860E1,-2.828130871E-2,8.207154274E-2,1.626558304E-1
1.761044883E1,8.331015706E-3,8.976674080E-2,3.756027222E-1
1.762051957E1,-6.172314286E-3,4.665517807E-2,4.323225021E-1
1.763055980E1,-1.373052597E-2,4.053759575E-2,3.417034149E-1
1.764060003E1,-1.497711241E-2,4.381847382E-2,1.740093231E-1
1.765064025E1,-3.940602764E-2,3.441619873E-2,-4.878330231E-2
1.766068048E1,6.860598922E-3,5.848455429E-2,-6.264972687E-2
1.767072071E1,-1.634940505E-3,8.354926109E-2,-5.653953552E-2
1.768076094E1,2.864375710E-3,1.105496883E-1,-4.464149475E-3
1.769080116E1,-2.613061666E-2,1.302458048E-1,-2.127647400E-3
1.770087191E1,-2.094970644E-2,1.348587275E-1,4.370975494E-2
1.771091214E1,-1.290315390E-2,1.503490210E-1,3.000736237E-2
1.772095237E1,-2.464129776E-2,1.274514198E-1,6.229686737E-2
1.773099259E1,-3.309555352E-2,9.713304043E-2,4.715251923E-2
1.774103282E1,-4.965249449E-2,5.907166004E-2,-5.917549133E-3
1.775107305E1,-3.061778843E-2,3.075361252E-3,-9.464263916E-2
1.776111328E1,-3.532554582E-2,-1.382100582E-2,-1.081371307E-2
1.777118402E1,-7.256273180E-3,-4.219353199E-2,1.090364456E-1
1.778122425E1,2.532713488E-2,-3.270256519E-2,1.976919174E-1
1.779126448E1,1.942361519E-2,-9.184753895E-2,2.285985947E-1
1.780130470E1,1.782805473E-2,-1.100428104E-1,1.968736649E-1
1.781134493E1,2.382376045E-2,-1.247725487E-1,7.874107361E-2
1.782138516E1,-8.725076914E-3,-1.369918585E-1,-7.089424133E-2
1.783142539E1,7.851144299E-3,-1.123542786E-1,-1.939764023E-1
1.784146562E1,2.525394782E-2,-9.272837639E-2,-2.040996552E-1
1.785153636E1,-1.514256001E-2,-5.776774883E-2,-1.034650803E-1
1.786157659E1,-1.976195723E-3,-6.945729256E-3,3.096675873E-2
1.787161682E1,-8.531242609E-3,3.524672985E-2,1.512126923E-1
1.788165704E1,-1.264563948E-2,6.159269810E-2,2.161445618E-1
1.789169727E1,-2.582638711E-2,6.456816196E-2,2.257108688E-1
1.790173750E1,-3.068547323E-2,4.090559483E-2,2.180776596E-1
1.791177773E1,3.356652334E-3,8.162474632E-2,1.669301987E-1
1.792184847E1,-1.920664310E-2,1.202080250E-1,6.997585297E-2
1.793188870E1,-5.855888128E-3,1.017905474E-1,4.257774353E-2
1.794192893E1,-2.118750289E-2,1.057373285E-1,2.972507477E-2
1.795196915E1,-1.765148342E-2,1.503611803E-1,1.451587677E-2
1.796200938E1,-3.385022283E-4,1.401858330E-1,-1.220130920E-2
1.797204961E1,1.659780182E-2,1.060465574E-1,-2.414989471E-2
1.798208984E1,1.433555409E-2,7.394862175E-2,-5.251598358E-2
1.799216058E1,1.029961370E-2,9.030151367E-2,-2.570724487E-2
1.800220081E1,-7.641464472E-4,9.964847565E-2,1.790523529E-2
1.801224104E1,-9.473137558E-3,4.333448410E-2,7.131958008E-2
1.802228127E1,3.488444164E-2,2.290856838E-2,9.361934662E-2
1.803232149E1,3.555674106E-3,-1.745951176E-2,1.086359024E-1
1.804236172E1,-1.842846349E-2,-3.096783161E-2,1.138105392E-1
1.805240195E1,3.845365345E-2,-4.060924053E-2,8.295536041E-2
1.806244218E1,1.847611740E-2,-2.766263485E-2,6.868457794E-2
1.807248240E1,-1.121014357E-4,-5.901575089E-3,-1.989555359E-2
1.808255315E1,5.442865193E-3,-1.494634151E-2,-1.981544495E-2
1.809259338E1,-2.877462655E-3,-1.574492455E-2,3.790473938E-2
1.810263361E1,-3.630246967E-3,-1.980733871E-2,6.713390350E-2
1.811267383E1,-2.558970451E-2,-5.113685131E-2,7.264423370E-2
1.812271406E1,-3.553001583E-2,-7.371747494E-2,6.556510925E-3
1.813275429E1,2.899631858E-3,-2.361106873E-2,5.998897552E-2
1.814279452E1,-5.874971300E-2,1.448976994E-2,3.442573547E-2
1.815286526E1,4.019416869E-2,3.757786751E-2,-1.037502289E-2
1.816290549E1,-2.167467028E-2,-6.223201752E-3,1.429080963E-2
1.817294572E1,-5.346916616E-3,2.221703529E-3,-5.925083160E-2
1.818298595E1,1.071506739E-2,2.245569229E-2,1.161994934E-1
1.819302617E1,-2.066046000E-3,3.290665150E-2,1.934766769E-1
1.820306640E1,6.188539788E-2,3.002166748E-3,2.372999191E-1
1.821310663E1,-6.038352102E-2,8.928060532E-3,5.099296570E-2
1.822317737E1,1.992892474E-3,-3.122687340E-3,-1.545906067E-1
1.823321760E1,-4.890285432E-3,9.258508682E-3,-2.403726578E-1
1.824325783E1,-3.498420119E-5,5.159854889E-3,-1.893405914E-1
1.825329806E1,4.326170683E-2,1.394844055E-2,-2.297592163E-2
1.826333828E1,1.973308250E-2,2.715599537E-2,2.370119095E-1
1.827337851E1,4.418947920E-2,4.270720482E-2,3.916578293E-1
1.828344926E1,3.040609881E-2,7.005560398E-2,3.760251999E-1
1.829348948E1,5.545948446E-2,5.967819691E-2,2.447366714E-1
1.830352971E1,3.638509661E-2,9.592354298E-2,8.433628082E-2
1.831356994E1,-1.005044580E-2,7.541370392E-2,4.043579102E-4
1.832361017E1,2.063971013E-3,3.863525391E-2,-7.863903046E-2
1.833365040E1,-3.257200867E-2,3.333687782E-3,-7.368850708E-2
1.834369062E1,1.301091164E-3,1.827853918E-2,-3.493309021E-2
1.835376137E1,-5.367728695E-2,-1.927173138E-2,1.129913330E-2
1.836380160E1,-5.996037275E-3,-9.575068951E-3,6.012821198E-2
1.837384182E1,-2.717445791E-2,-5.643069744E-3,8.996677399E-2
1.838388205E1,8.283562958E-2,5.674940348E-2,8.138179779E-2
1.839392228E1,5.250202864E-2,7.564371824E-2,2.729415894E-2
1.840396251E1,5.510844290E-2,8.914613724E-2,-1.246261597E-2
1.841400273E1,6.192161143E-2,5.067890882E-2,-2.100372314E-2
1.842407348E1,5.979464948E-2,-1.520085335E-2,2.805995941E-2
1.843411371E1,3.265229240E-2,-5.123913288E-2,7.724475861E-2
1.844415394E1,-1.448630262E-2,-1.078325510E-2,1.048889160E-1
1.845419416E1,-3.131864592E-2,-2.812135220E-2,6.548404694E-2
1.846423439E1,-5.210525170E-2,-3.614312410E-2,-2.659893036E-2
1.847427462E1,-9.599612653E-2,-8.218204975E-2,-9.230232239E-2
1.848431485E1,-1.284040790E-2,3.862392902E-2,-3.116226196E-2
1.849438559E1,-3.243833035E-2,8.657938242E-2,-1.318264008E-2
1.850442582E1,-2.319831774E-2,6.194972992E-2,7.916927338E-2
1.851446605E1,-1.281755976E-3,3.437298536E-2,1.022520065E-1
1.852450628E1,-1.187910233E-2,1.941394806E-2,9.427452087E-2
1.853454650E1,2.015649341E-2,2.055221796E-2,6.710052490E-2
1.854458673E1,3.447413817E-2,3.558230400E-2,2.553749084E-2
1.855462696E1,2.508130483E-2,2.916252613E-2,1.033115387E-2
1.856469770E1,3.026526049E-2,3.949308395E-2,3.344631195E-2
1.857473793E1,8.409381658E-2,5.125105381E-2,4.692363739E-2
1.858477816E1,3.532474488E-2,4.701393843E-2,-1.613998413E-2
1.859481839E1,2.569133416E-3,5.445039272E-2,1.656055450E-2
1.860485861E1,1.515460201E-2,5.499035120E-2,6.845092773E-2
1.861489884E1,4.614655674E-2,2.549517155E-2,5.578136444E-2
1.862493907E1,-1.495439559E-3,1.499652863E-3,3.598976135E-2
1.863497930E1,-6.489627063E-3,1.097464561E-2,3.057003021E-2
1.864505004E1,-1.442674547E-4,9.011685848E-3,7.068157196E-2
1.865509027E1,-1.112378761E-2,2.717971802E-3,6.773376465E-2
1.866513050E1,-7.537323982E-3,-1.065063477E-2,8.634948730E-2
1.867517072E1,1.043184102E-2,6.857275963E-3,5.228424072E-2
1.868521095E1,1.788370311E-3,1.663345098E-2,3.974151611E-2
1.869525118E1,-2.593074739E-2,-1.918941736E-2,4.396057129E-2
1.870529141E1,-2.976961061E-2,-2.597206831E-2,1.468753815E-2
1.871536215E1,-5.437934026E-2,-5.794650316E-2,4.055976868E-2
1.872540238E1,-4.603962973E-2,-1.687371731E-2,8.312988281E-2
1.873544261E1,-2.417735755E-2,-1.458758116E-2,6.821632385E-2
1.874548284E1,6.116180867E-2,1.527762413E-2,5.803203583E-2
1.875552306E1,1.268695481E-2,7.220029831E-3,-7.173538208E-3
1.876556329E1,7.577002048E-3,2.486765385E-2,-3.648757935E-2
1.877560352E1,1.537591405E-2,4.007187486E-2,-2.749061584E-2
1.878567426E1,4.204600304E-2,1.553687453E-2,-3.279876709E-2
1.879571449E1,-2.141175047E-2,-8.391052485E-3,1.079835892E-1
1.880575472E1,5.211483315E-2,9.220877290E-2,1.720390320E-1
1.881579495E1,-2.067338303E-2,9.666630626E-2,8.048820496E-2
1.882583518E1,2.136921510E-2,4.727441072E-2,1.774120331E-2
1.883587540E1,4.551884532E-2,3.085258603E-2,4.116821289E-2
1.884591563E1,-1.681202278E-2,1.519247890E-2,-1.915740967E-2
1.885595586E1,-2.303691953E-2,-2.609968185E-3,-9.862041473E-2
1.886602660E1,1.066092774E-2,-7.048308849E-3,-1.564702988E-1
1.887606683E1,-1.992837712E-2,-1.483130455E-2,-3.707981110E-2
1.888610706E1,1.344335824E-2,-4.257738590E-3,1.757526398E-1
1.889614729E1,2.771932632E-2,1.581376791E-2,2.425394058E-1
1.890618752E1,3.994279355E-2,-1.784563065E-3,9.617900848E-2
1.891622774E1,3.288547695E-2,-1.172265410E-2,-1.771411896E-1
1.892626797E1,6.437838078E-3,-3.872016072E-2,-3.187818527E-1
1.893633872E1,-8.335229009E-3,-3.494074941E-2,-1.682491302E-1
1.894637894E1,-4.058409482E-3,1.390194893E-2,4.230213165E-2
1.895641917E1,2.248905227E-2,2.022808790E-2,2.361173630E-1
1.896645940E1,5.418948457E-2,3.457739949E-2,3.197498322E-1
1.897649963E1,6.564909965E-2,3.410786390E-2,2.955417633E-1
1.898653985E1,2.411121875E-2,3.268536925E-2,2.233428955E-1
1.899658008E1,2.875613980E-2,6.178513169E-2,1.797952652E-1
1.900662031E1,1.286079735E-2,4.698970914E-2,8.836650848E-2
1.901669106E1,1.359015331E-2,4.401685297E-2,-2.219867706E-2
1.902673128E1,-1.303329319E-2,-8.404254913E-5,-9.917545319E-2
1.903677151E1,1.739002764E-2,1.434326172E-3,-1.210050583E-1
1.904681174E1,-3.098523244E-2,-1.092964411E-2,-3.501033783E-2
1.905685196E1,-4.971358925E-3,1.301729679E-2,1.993465424E-2
1.906689219E1,-3.121352568E-2,2.453903854E-2,7.732582092E-2
1.907693242E1,-1.891867071E-2,3.805339336E-3,1.347503662E-1
1.908697265E1,-2.252722159E-2,-6.717950106E-3,1.490993500E-1
1.909704339E1,5.079209805E-4,-2.829134464E-3,2.209129333E-1
1.910708362E1,9.076453745E-3,2.435298264E-2,2.927103043E-1
1.911712385E1,4.701083153E-2,2.752405405E-2,4.387302399E-1
1.912716408E1,1.089695841E-2,2.351510525E-2,5.536289215E-1
1.913720430E1,1.758124307E-2,4.308255017E-2,3.812112808E-1
1.914724453E1,7.906273007E-3,5.480626225E-2,4.146852493E-1
1.915728476E1,3.776179627E-2,1.187383533E-1,6.753635406E-2
1.916735551E1,-6.588143855E-2,6.587550044E-3,-1.957302094E-1
1.917739573E1,-7.565446198E-2,-4.104837775E-3,-4.564580917E-1
1.918743596E1,1.723872125E-2,3.238277137E-2,-5.421161652E-1
1.919747619E1,-2.554029226E-3,6.239981949E-2,-4.599103928E-1
1.920751642E1,5.401955172E-2,4.789647460E-2,-3.774423599E-1
1.921755664E1,4.047833011E-2,4.163187742E-2,-2.157335281E-1
1.922759687E1,1.082829386E-2,3.573495150E-2,-1.161375046E-1
1.923766762E1,4.883195832E-2,-1.466804743E-2,4.337596893E-2
1.924770784E1,2.339868248E-2,-4.466915131E-2,1.094675064E-1
1.925774807E1,3.273113817E-2,-6.963890791E-2,1.586666107E-1
1.926778830E1,6.877012551E-3,-1.396116614E-1,1.597175598E-1
1.927782853E1,8.611410856E-3,-1.429618001E-1,1.460323334E-1
1.928786876E1,1.271609962E-2,-1.457547545E-1,1.398916245E-1
1.929790898E1,2.097473294E-2,-1.084132195E-1,1.563711166E-1
1.930797973E1,7.161967456E-3,-9.830927849E-2,1.869640350E-1
1.931801996E1,2.744130045E-2,-4.854184389E-2,1.476135254E-1
1.932806018E1,-1.955757290E-2,-2.357465029E-2,2.927303314E-2
1.933810041E1,-1.855328679E-2,2.914983034E-2,1.627063751E-2
1.934814064E1,-4.429407418E-2,1.171764731E-1,1.160001755E-1
1.935818087E1,-5.303485692E-2,1.961515546E-1,1.560049057E-1
1.936822110E1,-4.623396695E-2,2.359666824E-1,1.887998581E-1
1.937829184E1,-4.044005275E-2,2.229783535E-1,1.068572998E-1
1.938833207E1,-2.056288719E-2,1.355952024E-1,-2.000808716E-2
1.939837230E1,-8.678434789E-2,1.043142676E-1,4.305839539E-3
1.940841252E1,-5.541318655E-2,1.621448398E-1,1.053304672E-1
1.941845275E1,-3.981038928E-2,2.387029529E-1,1.678571701E-1
1.942849298E1,3.065143526E-2,2.594787478E-1,2.085704803E-1
1.943853321E1,-4.372417927E-3,1.975324154E-1,1.774730682E-1
1.944857343E1,3.768551350E-2,1.552082300E-1,-2.609539032E-2
1.945861366E1,4.532521963E-2,1.317543387E-1,-1.888656616E-1
1.946868441E1,4.105663300E-2,4.430449009E-2,-2.129049301E-1
1.947872463E1,2.487614751E-3,-3.842091560E-2,-1.388006210E-1
1.948876486E1,-8.752173185E-2,-8.206558228E-2,-5.745506287E-2
1.949880509E1,-2.395202219E-2,-7.297801971E-2,-7.425880432E-2
1.950884532E1,-3.373126686E-2,-8.260619640E-2,-1.077089310E-1
1.951888554E1,-4.554450512E-3,-3.324019909E-2,-1.007804871E-1
1.952892577E1,-2.235387266E-2,-6.199026108E-2,-1.975822449E-2
1.953896600E1,3.538410366E-2,-6.890785694E-2,3.946876526E-2
1.954903675E1,4.710373282E-2,-3.842568398E-2,-7.041931152E-3
1.955907697E1,2.741672099E-2,-3.191542625E-2,-5.863189697E-2
1.956911720E1,1.257275045E-2,3.276705742E-2,-4.817295074E-2
1.957915743E1,1.939456165E-2,2.088308334E-3,3.177642822E-2
1.958919766E1,5.488079786E-2,-1.097893715E-2,3.283023834E-2
1.959923788E1,4.262687266E-2,-1.283633709E-2,6.761837006E-2
1.960927811E1,3.703431785E-2,-1.518011093E-3,3.313159943E-2
1.961934886E1,3.361271322E-2,3.458619118E-2,1.791381836E-2
1.962938909E1,3.061926365E-2,2.650725842E-2,1.007366180E-2
1.963942931E1,1.836410165E-2,3.873443604E-2,9.593963623E-3
1.964946954E1,4.116374254E-2,3.725969791E-2,1.241312027E-1
1.965950977E1,5.353188515E-2,2.483701706E-2,1.765642166E-1
1.966955000E1,3.752584755E-2,3.172457218E-2,1.332874298E-1
1.967959022E1,4.058325291E-2,5.235278606E-2,7.558345795E-2
1.968966097E1,2.016609907E-2,8.691859245E-2,1.096725464E-3
1.969970120E1,1.622936130E-2,1.073862314E-1,1.970195770E-2
1.970974142E1,1.969009638E-2,9.535348415E-2,3.608036041E-2
1.971978165E1,-1.756691933E-2,1.087363958E-1,4.042148590E-2
1.972982188E1,-3.007866442E-2,7.275402546E-2,9.281253815E-2
1.973986211E1,-4.916295409E-3,5.354535580E-2,3.029537201E-2
1.974990234E1,-3.479698300E-2,6.119358540E-2,-1.355171204E-3
1.975994256E1,-3.297448158E-2,3.481256962E-2,-8.577251434E-2
1.977001331E1,2.546852827E-2,2.981996536E-2,-6.726455688E-2
1.978005354E1,3.136350214E-2,3.018605709E-2,-4.865169525E-2
1.979009376E1,3.283703327E-2,3.328883648E-2,3.228569031E-2
1.980013399E1,6.055429578E-3,5.076980591E-2,9.409809113E-2
1.981017422E1,2.253146470E-2,2.011764050E-2,9.124755859E-2
1.982021445E1,4.236057401E-3,-1.062893867E-2,1.363029480E-1
1.983025468E1,6.396668404E-2,7.738828659E-3,1.596240997E-1
1.984029490E1,1.176041067E-1,1.126316786E-1,1.339092255E-1
1.985036565E1,7.905438542E-3,5.232393742E-2,3.965473175E-2
1.986040588E1,-2.152150869E-2,-2.678561211E-2,6.515598297E-2
1.987044610E1,4.219241440E-2,-1.681971550E-2,3.088665009E-2
1.988048633E1,-2.539351583E-2,2.478122711E-3,7.799911499E-2
1.989052656E1,-1.465266943E-2,3.589594364E-2,1.011705399E-1
1.990056679E1,7.775425911E-5,5.886209011E-2,9.072303772E-2
1.991063753E1,-4.523210227E-2,9.102642536E-2,9.902191162E-2
1.992067776E1,-4.703211784E-2,1.307239532E-1,4.993724823E-2
1.993071799E1,-5.444300175E-2,5.551290512E-2,-1.785373688E-2
1.994075821E1,-7.261194289E-2,-8.372068405E-3,-2.065849304E-2
1.995079844E1,4.684582353E-3,-3.278362751E-2,-5.437374115E-2
1.996086919E1,1.833721995E-2,-2.351570129E-2,-1.881599426E-3
1.997090942E1,4.756014049E-2,1.603233814E-2,3.842353821E-2
1.998094964E1,5.035971105E-2,4.267692566E-3,5.216121674E-2
1.999098987E1,5.820916593E-2,1.219034195E-2,5.355930328E-2
2.000103010E1,4.232186079E-2,-2.570950985E-2,-5.761814117E-2
