"Time (s)","Linear Acceleration x (m/s^2)","Linear Acceleration y (m/s^2)","Linear Acceleration z (m/s^2)"
8.788934700E-2,-5.813717842E-3,-3.014409542E-2,3.578662872E-2
9.789911300E-2,1.352381706E-2,-4.908496141E-2,6.605052948E-2
1.079088780E-1,-3.834635019E-2,-2.447038889E-2,6.220245361E-2
1.179186440E-1,-6.314098835E-3,-5.207151175E-2,2.895927429E-2
1.279284090E-1,-1.151859760E-3,-6.140720844E-2,1.449584961E-2
1.379381750E-1,-2.189952135E-2,-2.574098110E-2,2.511501312E-2
1.479784580E-1,-2.408617735E-2,-5.354464054E-2,3.957748413E-2
1.580187410E-1,9.539246559E-3,-1.871502399E-2,4.491806030E-2
1.680285070E-1,8.698284626E-3,-3.526431322E-2,6.408309937E-2
1.780382730E-1,3.429073095E-2,-3.565239906E-2,5.372428894E-2
1.880785560E-1,-1.281499863E-5,-6.080394983E-2,1.163635254E-1
1.980883220E-1,5.779570341E-2,-6.657975912E-2,4.862403870E-2
2.081286050E-1,3.207474947E-2,-4.118317366E-2,-8.972167969E-3
2.181383700E-1,2.137470245E-2,-5.337095261E-2,-7.894515991E-3
2.281481360E-1,2.451968193E-2,-3.246545792E-2,-8.611965179E-2
2.381884190E-1,3.755649924E-2,-2.116817236E-2,-9.110927582E-2
2.482592200E-1,4.249751568E-3,2.330327034E-2,-6.744003296E-2
2.631823160E-1,-1.354485750E-2,4.787504673E-2,-4.056549072E-2
2.731920810E-1,-4.083603621E-2,6.152379513E-2,-3.350448608E-2
2.832323640E-1,-3.537905216E-2,6.959325075E-2,-3.967285156E-3
2.932726480E-1,2.484977245E-3,6.336045265E-2,1.070785522E-2
3.033129310E-1,-5.415046215E-2,5.749738216E-2,-1.674270630E-2
3.133226970E-1,-3.371894360E-2,5.740892887E-2,-3.917312622E-2
3.233629800E-1,-2.270573378E-2,6.759369373E-2,-9.728431702E-3
3.333727450E-1,6.971001625E-3,-1.172500849E-2,5.003929138E-3
3.434130290E-1,-3.387159109E-2,5.761325359E-3,-2.295207977E-2
3.534227940E-1,-2.736085653E-2,-9.918808937E-4,-3.151130676E-2
3.634325600E-1,-2.452123165E-2,-2.538383007E-2,4.030513763E-2
3.734423250E-1,2.872014046E-2,-4.796385765E-2,7.328987122E-3
3.834826090E-1,4.638171196E-2,-5.192935467E-2,9.596443176E-2
3.934923740E-1,3.022319078E-2,-6.508171558E-2,7.939052582E-2
4.035326570E-1,-1.870417595E-2,-3.638380766E-2,-2.136230469E-3
4.135424230E-1,3.690266609E-2,-2.649742365E-2,-7.262611389E-2
4.235521890E-1,2.206218243E-2,-5.704164505E-3,-6.070709229E-2
4.335924720E-1,1.158869267E-2,6.283462048E-3,-3.994464874E-2
4.436022380E-1,-1.826888323E-2,2.310311794E-2,4.134941101E-2
4.536425210E-1,-1.509648561E-2,5.317354202E-2,9.706497192E-2
4.636828040E-1,-2.101510763E-2,6.270474195E-2,1.888847351E-1
4.736925700E-1,-5.839121342E-2,-5.390882492E-3,1.139497757E-1
4.837023350E-1,-2.305275202E-2,5.415439606E-2,3.148460388E-2
4.937426180E-1,3.452062607E-3,2.247595787E-2,-5.861377716E-2
5.037523840E-1,3.469038010E-2,1.543056965E-2,-9.447765350E-2
5.137621500E-1,6.086844206E-2,3.760635853E-2,-1.625232697E-1
5.237719150E-1,7.127207518E-2,1.838207245E-2,-2.054767609E-1
5.337816810E-1,3.277212381E-2,-4.214942455E-3,-1.345119476E-1
5.438219640E-1,-1.456916332E-3,-5.410313606E-2,-9.819889069E-2
5.538317300E-1,3.465813398E-2,-5.636459589E-2,1.282215118E-2
5.638720130E-1,2.351504564E-2,-6.450563669E-2,4.172229767E-2
5.738817790E-1,2.709126472E-2,-8.355748653E-2,8.815479279E-2
5.838915440E-1,1.186192036E-2,-3.288555145E-2,5.325508118E-2
5.939318270E-1,-1.183807850E-2,-6.437772512E-2,2.861309052E-2
6.039415930E-1,2.953231335E-3,-2.014315128E-2,1.401042938E-2
6.139513590E-1,1.760566235E-2,-9.498655796E-3,-1.919555664E-2
6.239916420E-1,-2.940970659E-2,1.982748508E-3,3.986358643E-4
6.340319250E-1,2.376580238E-2,6.586968899E-2,-3.709125519E-2
6.440416910E-1,4.878640175E-3,2.496445179E-2,-1.722049713E-2
6.540514560E-1,1.395869255E-2,1.818144321E-2,3.546428680E-2
6.640917390E-1,2.291899920E-2,1.549255848E-2,8.706569672E-2
6.741015050E-1,-5.687415600E-3,1.225519180E-2,5.352020264E-3
6.841112710E-1,4.941761494E-3,5.671346188E-2,-8.808135986E-3
6.941515540E-1,-7.810354233E-3,3.950643539E-2,-3.221702576E-2
7.041613200E-1,3.613096476E-2,6.649404764E-2,-5.007934570E-2
7.142016030E-1,2.683973312E-2,3.736823797E-2,-4.923915863E-2
7.242113680E-1,2.138704062E-2,3.790360689E-2,8.570671082E-3
7.342211340E-1,1.704394817E-3,2.396726608E-2,6.528663635E-2
7.442614170E-1,-8.596718311E-3,2.370899916E-2,8.329963684E-2
7.542711830E-1,-4.658997059E-3,3.701508045E-3,3.500461578E-2
7.642809480E-1,-5.336344242E-3,7.075965405E-3,3.004360199E-2
7.742907140E-1,3.708183765E-3,9.755730629E-3,1.086330414E-2
7.843309970E-1,-1.589417458E-2,-1.091325283E-2,1.434326172E-3
7.943407630E-1,-3.957724571E-2,6.481587887E-3,-4.053592682E-2
8.043810460E-1,3.552496433E-3,-3.784495592E-2,-1.607513428E-2
8.143908120E-1,-2.528238297E-2,-1.012086868E-2,-1.554870605E-2
8.244310950E-1,-2.122896910E-2,-4.456776381E-2,-1.498222351E-2
8.344408610E-1,-4.594367743E-2,-5.992412567E-2,2.303123474E-2
8.444506260E-1,-4.175674915E-2,-3.730535507E-2,-1.019668579E-2
8.544909090E-1,-3.229987621E-2,1.297134161E-2,-3.358364105E-2
8.645006750E-1,-3.178966045E-2,-3.957569599E-3,-3.290176392E-2
8.745409580E-1,-4.039877653E-2,1.282888651E-2,5.959510803E-3
8.845507240E-1,-4.402673244E-2,3.450316191E-2,6.120681763E-3
8.945604890E-1,-9.560048580E-3,8.916258812E-3,1.576519012E-2
9.046007730E-1,5.237400532E-3,1.197159290E-2,4.911422729E-2
9.146105380E-1,2.946281433E-2,3.971755505E-2,3.916358948E-2
9.246203040E-1,4.356396198E-2,3.418946266E-2,4.366874695E-2
9.346605870E-1,4.818177223E-2,-3.736454248E-2,-8.646965027E-3
9.446703530E-1,2.423876524E-2,2.516120672E-2,6.055831909E-3
9.546801180E-1,-2.354973555E-2,-2.778410912E-3,-4.571437836E-2
9.647204020E-1,5.280256271E-3,-2.051252127E-2,-2.100276947E-2
9.747301670E-1,-1.444011927E-2,-3.132820129E-4,-1.080513000E-3
9.847399330E-1,-1.061439514E-2,1.943159103E-2,2.341175079E-2
9.947802160E-1,-1.669615507E-2,2.011692524E-2,2.826690674E-2
1.004789982E0,-8.292555809E-3,4.396218061E-2,-4.918098450E-3
1.014830265E0,-4.242795706E-2,3.422331810E-2,5.690670013E-2
1.024840031E0,-2.850395441E-2,4.308396578E-2,-3.837299347E-2
1.034849796E0,-2.343958616E-2,1.370823383E-2,1.475715637E-2
1.044890079E0,-8.485138416E-3,2.702188492E-2,-4.680061340E-2
1.054899845E0,-2.617567778E-2,2.956688404E-3,-7.975578308E-3
1.064909611E0,2.731686831E-2,7.672369480E-3,1.626586914E-2
1.074949894E0,6.032949686E-2,3.454566002E-3,-1.626968384E-2
1.084990177E0,3.994637728E-2,-5.732178688E-4,2.200794220E-2
1.094999943E0,5.562722683E-3,-2.828884125E-2,-6.377220154E-3
1.105009708E0,1.960295439E-2,-3.190839291E-2,-6.274414062E-2
1.115019474E0,1.552462578E-2,-2.517449856E-2,-4.690074921E-2
1.125059757E0,7.645308971E-3,-1.801931858E-2,-3.110027313E-2
1.135069523E0,-4.330343008E-2,-3.375148773E-2,3.180885315E-2
1.145109806E0,-1.331526041E-2,-1.584780216E-2,6.519889832E-2
1.155119572E0,-1.705205441E-2,1.979035139E-2,7.886695862E-2
1.165159855E0,-5.430567265E-2,3.932195902E-2,1.252145767E-1
1.175169620E0,-5.785226822E-2,6.684398651E-2,1.235561371E-1
1.185209904E0,-6.104832888E-2,6.875628233E-2,8.832073212E-2
1.195219669E0,-1.167386770E-2,7.403993607E-2,1.618194580E-2
1.205229435E0,4.248797894E-3,9.375888109E-2,-7.367706299E-2
1.215269718E0,2.026516199E-2,8.144205809E-2,-1.715822220E-1
1.225279484E0,4.049557447E-2,6.640458107E-2,-1.491622925E-1
1.235319767E0,7.440268993E-3,2.012920380E-2,-1.221303940E-1
1.245329532E0,1.632869244E-2,-1.941007376E-2,-7.212734222E-2
1.255339298E0,-2.309185266E-2,-2.951788902E-2,-8.819580078E-3
1.265379581E0,3.691244125E-2,-6.380093098E-2,2.503776550E-2
1.275389347E0,-1.718062162E-2,-7.006442547E-2,6.311416626E-2
1.285399113E0,-3.215110302E-2,-1.059896350E-1,4.366683960E-2
1.295439396E0,-8.283853531E-3,-5.724877119E-2,2.888965607E-2
1.305449161E0,1.338601112E-3,-5.366027355E-3,9.920120239E-3
1.315489445E0,-1.812607050E-2,-5.954027176E-3,-4.660987854E-2
1.325499210E0,9.697675705E-3,4.122114182E-2,-2.940177917E-3
1.335508976E0,2.761358023E-2,2.143359184E-2,-1.652145386E-2
1.345549259E0,5.431288481E-2,4.006505013E-2,-1.627922058E-3
1.355559025E0,-1.464444399E-2,2.939736843E-2,6.935214996E-2
1.365568790E0,-2.543395758E-2,6.125247478E-2,4.954338074E-2
1.375609073E0,-2.083718777E-2,5.444467068E-2,-7.555007935E-3
1.385618839E0,-6.029069424E-3,2.937114239E-2,-7.305240631E-2
1.395628605E0,-1.019239426E-5,5.301702023E-2,-1.281700134E-1
1.405638370E0,-2.280074358E-2,4.944002628E-2,-1.251630783E-1
1.415678654E0,1.597464085E-3,6.167721748E-2,-8.904361725E-2
1.425688419E0,-1.381099224E-2,-1.826643944E-3,4.550933838E-2
1.435728702E0,7.784008980E-3,-3.187644482E-2,7.844638824E-2
1.445738468E0,-9.069442749E-3,-1.122713089E-2,9.654998779E-2
1.455778751E0,-1.149952412E-2,-1.179742813E-2,3.846645355E-2
1.465788517E0,-3.239631653E-3,-3.916382790E-3,5.695247650E-2
1.475798282E0,1.004123688E-2,7.299423218E-3,1.857662201E-2
1.485838566E0,-2.825814486E-2,2.302122116E-2,-3.844165802E-2
1.495848331E0,-4.183411598E-3,2.891826630E-2,-9.001731873E-3
1.505858097E0,-9.355127811E-3,-2.708554268E-3,-3.221035004E-2
1.515898380E0,-1.453882456E-2,2.798831463E-2,-1.255893707E-2
1.525908146E0,-1.557442546E-2,6.137371063E-3,1.154899597E-2
1.535917911E0,-4.055514932E-2,3.148853779E-2,2.587699890E-2
1.545958195E0,-5.970889330E-2,-5.915045738E-3,-4.077720642E-2
1.555967960E0,-2.327978611E-3,1.375889778E-2,4.025745392E-2
1.566008243E0,2.916306257E-3,2.346932888E-2,2.556037903E-2
1.576018009E0,-1.540887356E-2,9.777903557E-3,2.019691467E-2
1.586058292E0,-1.420962811E-2,-1.763308048E-2,3.899288177E-2
1.596068058E0,-8.731126785E-3,3.173339367E-2,1.497650146E-2
1.606077823E0,1.032537222E-2,2.438163757E-2,-2.294921875E-2
1.616087589E0,1.023179293E-2,3.721392155E-2,-1.279163361E-2
1.626127872E0,1.908016205E-2,-1.611614227E-2,1.948356628E-3
1.636168156E0,2.320244908E-2,-2.551090717E-2,2.473831177E-3
1.646177921E0,-5.460441113E-3,-2.594470978E-2,1.264190674E-2
1.656279239E0,1.866492629E-2,-4.998493195E-2,3.459930420E-3
1.671171818E0,9.906291962E-5,-2.987146378E-2,1.833057404E-2
1.681181583E0,-3.770184517E-2,-2.247786522E-2,2.774620056E-2
1.691252384E0,1.384019852E-4,-1.387834549E-3,3.712177277E-2
1.701262150E0,-5.027174950E-3,5.112528801E-3,-1.525306702E-2
1.711302433E0,-4.246890545E-2,2.622640133E-2,-4.296112061E-2
1.721312198E0,-3.689444065E-2,1.402461529E-2,-4.202270508E-2
1.731352482E0,6.342530251E-3,2.469182014E-3,1.113224030E-2
1.741362247E0,-3.165411949E-2,3.394627571E-2,-7.444381714E-3
1.751372013E0,-7.444083691E-3,2.700257301E-2,3.066635132E-2
1.761412296E0,-6.834387779E-3,2.475774288E-2,5.915641785E-2
1.771422062E0,-1.074063778E-2,3.744363785E-3,3.000354767E-2
1.781462345E0,5.151695013E-2,4.477906227E-2,2.036857605E-2
1.791472111E0,4.596418142E-2,-2.289628983E-2,-3.142356873E-2
1.801481876E0,2.159357071E-3,-3.983259201E-3,-2.108383179E-2
1.811522159E0,1.149076223E-2,2.492141724E-2,-5.790710449E-2
1.821531925E0,-7.559061050E-3,7.506608963E-3,-7.955074310E-2
1.831572208E0,-2.637338638E-2,2.944016457E-2,-2.531147003E-2
1.841581974E0,-2.243399620E-3,-1.937925816E-2,4.190444946E-3
1.851622257E0,-1.177889109E-2,-1.855373383E-3,5.722522736E-2
1.861632023E0,-1.697391272E-2,-1.953005791E-2,8.527469635E-2
1.871672306E0,-3.091317415E-2,-1.512050629E-3,1.172170639E-1
1.881682072E0,-2.463638783E-3,4.156041145E-2,1.484184265E-1
1.891691837E0,-2.336621284E-3,2.942192554E-2,1.172838211E-1
1.901701603E0,1.237398386E-2,6.355118752E-2,1.575088501E-2
1.911711368E0,2.287286520E-2,3.152191639E-2,-8.370113373E-2
1.921751652E0,3.792518377E-2,5.342054367E-2,-1.675014496E-1
1.931791935E0,3.388744593E-2,6.769347191E-2,-1.596326828E-1
1.941801700E0,-8.781850338E-3,2.733492851E-2,-8.995342255E-2
1.951841984E0,-8.858680725E-3,1.207411289E-2,2.042770386E-3
1.961851749E0,-2.384757996E-2,1.546251774E-2,6.872558594E-2
1.971861515E0,2.259141207E-2,-5.333232880E-2,9.615612030E-2
1.981871281E0,-2.772450447E-3,-8.919835091E-3,7.573127747E-2
1.991911564E0,-2.773588896E-2,-1.811707020E-2,3.658008575E-2
2.001921329E0,-2.346313000E-2,4.606246948E-4,3.110313416E-2
2.011931095E0,-4.845798016E-3,-9.194493294E-3,-2.573013306E-3
2.021971378E0,-1.476386189E-2,-3.252637386E-2,-1.181602478E-2
2.031981144E0,-9.969741106E-3,-1.201653481E-2,-5.390930176E-2
2.041990909E0,-5.472213030E-3,-2.374911308E-2,-6.698226929E-2
2.052031193E0,1.321473718E-2,3.097534180E-3,3.361606598E-2
2.062071476E0,-7.134050131E-3,1.513421535E-2,7.103347778E-2
2.072081241E0,-7.905244827E-3,-1.174259186E-2,5.558490753E-2
2.082091007E0,-4.105472565E-2,-1.515328884E-2,2.172946930E-2
2.092131290E0,-4.912438989E-2,-8.688807487E-3,-6.376361847E-2
2.102141056E0,-2.360904217E-2,-1.528620720E-3,-9.069061279E-2
2.112181339E0,6.260454655E-3,2.915263176E-3,-9.821510315E-2
2.122191105E0,6.237626076E-3,2.244794369E-2,-3.931808472E-2
2.132231388E0,1.433116198E-2,2.308392525E-2,5.148696899E-2
2.147215519E0,-4.099696875E-2,1.685738564E-3,7.482719421E-2
2.157255802E0,1.009827852E-2,5.196213722E-3,2.197647095E-2
2.167296085E0,3.732186556E-2,-1.050913334E-2,3.180885315E-2
2.177305851E0,-2.014166117E-2,2.556169033E-2,-3.470230103E-2
2.187346134E0,8.692890406E-3,1.875746250E-2,-9.973526001E-3
2.197355900E0,-5.175262690E-3,1.698291302E-2,-5.669021606E-2
2.207365665E0,1.417383552E-2,-8.702635765E-3,1.287460327E-3
2.217375431E0,-1.486378908E-2,-1.530742645E-2,4.431724548E-2
2.227385197E0,-9.585618973E-4,-1.743483543E-2,2.455043793E-2
2.237425480E0,-2.995309234E-2,-1.049375534E-2,5.706882477E-2
2.247435245E0,-1.616400480E-2,5.411982536E-3,-1.438426971E-2
2.257475529E0,-5.376246572E-2,3.577446938E-2,-4.244041443E-2
2.267485294E0,-1.009207964E-2,9.587168694E-3,-4.604816437E-2
2.277525577E0,5.275785923E-3,2.731525898E-2,-7.302951813E-2
2.287535343E0,5.669862032E-3,-1.846671104E-3,-5.274200439E-2
2.297545109E0,3.430142999E-2,7.985115051E-3,-6.532669067E-2
2.307585392E0,2.362039685E-2,-1.348376274E-3,-1.183986664E-2
2.317595157E0,3.188383579E-2,-3.000438213E-2,-2.049446106E-2
2.327604923E0,2.573531866E-2,-1.632583141E-2,-6.742477417E-4
2.337645206E0,1.548236609E-2,2.442514896E-2,-5.041122437E-3
2.347654972E0,-3.211590648E-2,-3.068053722E-2,2.855587006E-2
2.357695255E0,-3.142535686E-3,-5.620121956E-3,4.706192017E-2
2.367705021E0,-1.711934805E-2,3.955125809E-3,3.681945801E-2
2.377714786E0,1.152220368E-2,-1.582670212E-2,3.149414062E-2
2.387755070E0,-2.672016621E-2,5.490112305E-2,-1.173019409E-2
2.397764835E0,-2.647861838E-2,3.512430191E-2,-6.847000122E-2
2.407805118E0,-4.547470808E-2,4.061233997E-2,-3.412723541E-2
2.417814884E0,-3.561550379E-2,5.161213875E-2,-1.915740967E-2
2.427824650E0,2.586334944E-3,5.837571621E-2,2.409458160E-2
2.437864933E0,-2.606207132E-2,-1.077866554E-2,6.046295166E-4
2.447874698E0,-3.017988801E-2,-3.136277199E-3,2.935504913E-2
2.457884464E0,1.828277111E-2,-4.765510559E-3,3.858280182E-2
2.467924747E0,4.191988707E-2,-3.458690643E-2,-1.387023926E-2
2.477934513E0,6.487759948E-2,-4.998612404E-2,-1.344871521E-2
2.487944279E0,1.775741577E-3,-2.757930756E-2,-3.350257874E-3
2.497984562E0,1.096341014E-2,-1.006972790E-2,-6.894207001E-2
2.507994327E0,2.018168569E-2,-1.143515110E-2,-1.950693130E-1
2.518004093E0,1.494023204E-2,-2.137553692E-2,-8.722114563E-2
2.528044376E0,-3.282201290E-2,-3.048920631E-2,-3.766250610E-2
2.538084659E0,4.777610302E-4,2.266764641E-3,5.324459076E-2
2.548094425E0,-2.814546227E-2,-3.858923912E-2,1.897764206E-1
2.558104191E0,-3.729620576E-2,-1.070654392E-2,1.814117432E-1
2.568144474E0,-2.185872197E-2,1.877474785E-2,1.967897415E-1
2.578154239E0,-2.970874310E-2,2.196526527E-2,1.219635010E-1
2.588255558E0,-4.617884755E-2,8.647429943E-2,1.026916504E-2
2.598265323E0,-2.874135971E-2,6.174159050E-2,-1.857471466E-2
2.613157902E0,3.181028366E-2,6.285202503E-2,-1.068830490E-1
2.623198185E0,1.378214359E-2,8.306431770E-2,-1.237535477E-1
2.633299503E0,4.387378693E-3,6.802296638E-2,-1.021814346E-1
2.643309269E0,-2.527099848E-2,3.568184376E-2,4.261016846E-3
2.653319034E0,-1.682305336E-2,1.815843582E-2,4.279994965E-2
2.663359318E0,9.831964970E-3,1.914393902E-2,3.809261322E-2
2.673399601E0,-1.995378733E-2,-2.415788174E-2,4.730033875E-2
2.683409366E0,-2.544227242E-2,-2.555358410E-2,9.413623810E-2
2.693419132E0,-6.503105164E-3,-5.132937431E-2,3.621578217E-2
2.703459415E0,-4.426863790E-2,-3.930509090E-2,5.956459045E-2
2.713469181E0,-1.081764698E-3,-4.627215862E-2,2.122974396E-2
2.723509464E0,-1.508116722E-3,-9.561777115E-3,-7.212638855E-3
2.733519230E0,-2.636969090E-3,-1.948630810E-2,-6.618499756E-3
2.743528995E0,3.800624609E-2,-9.980440140E-3,1.323509216E-2
2.753569279E0,1.763552427E-3,-4.857420921E-3,1.355838776E-2
2.763579044E0,-4.732114077E-2,-9.744644165E-3,-5.175590515E-3
2.773588810E0,-2.342429757E-2,2.255332470E-2,-4.256343842E-2
2.783598575E0,5.514472723E-3,-6.765723228E-3,-9.335327148E-2
2.793638859E0,-1.313388348E-2,3.108739853E-3,-1.570825577E-1
2.803648624E0,6.185263395E-3,2.393591404E-2,-1.157712936E-1
2.813688907E0,1.954868436E-2,-6.849288940E-3,-4.181289673E-2
2.823698673E0,-6.780356169E-3,-5.212306976E-3,2.587985992E-2
2.833708439E0,-2.349001169E-2,-2.236366272E-4,5.441665649E-2
2.843748722E0,3.051161766E-3,-2.293229103E-3,6.321430206E-2
2.853758488E0,-3.141790628E-3,-1.582992077E-2,8.589553833E-2
2.863798771E0,-2.223554254E-2,1.257014275E-2,3.704833984E-2
2.873808536E0,7.043659687E-3,1.667189598E-2,1.265716553E-2
2.883848820E0,-2.500799298E-2,6.356966496E-2,-2.057647705E-2
2.893858585E0,-3.342109919E-2,2.020561695E-2,-2.952194214E-2
2.903868351E0,-2.863153815E-2,3.045558929E-2,-5.353927612E-3
2.913908634E0,8.418172598E-3,2.685642242E-2,4.244232178E-2
2.923918400E0,-2.451002598E-3,-1.021397114E-2,4.202842712E-3
2.933928165E0,1.067668200E-3,1.977705956E-2,-5.268955231E-2
2.943968448E0,-1.824700832E-2,2.176046371E-3,-8.956909180E-2
2.958952579E0,1.494139433E-3,4.344105721E-2,-3.024864197E-2
2.968962345E0,-1.722699404E-2,-2.346158028E-3,-1.997661591E-2
2.979002628E0,-3.220289946E-3,-2.393579483E-2,-3.957748413E-4
2.989012394E0,-8.951008320E-3,-4.558050632E-2,2.809238434E-2
2.999052677E0,9.185969830E-3,-2.947127819E-2,9.160995483E-3
3.009062443E0,3.350228071E-3,-9.251952171E-3,-5.155563354E-3
3.019102726E0,1.218825579E-2,-8.463859558E-3,-2.839279175E-2
3.029112491E0,7.314145565E-3,-5.571079254E-2,-8.914947510E-3
3.039122257E0,-1.991182566E-3,-6.018161774E-2,-1.812076569E-2
3.049162540E0,3.655880690E-3,-3.254139423E-2,9.574890137E-4
3.059172306E0,-4.183948040E-4,-4.827713966E-2,5.648612976E-3
3.069182072E0,-1.904794574E-2,6.701231003E-3,-4.460334778E-3
3.079222355E0,-2.780145407E-2,4.709804058E-2,-1.901149750E-2
3.089232120E0,-1.374930143E-2,2.617073059E-2,9.138107300E-3
3.099272404E0,-5.032837391E-3,2.990579605E-2,-4.313564301E-2
3.109282169E0,-1.126050949E-2,1.511120796E-2,-9.494781494E-3
3.119291935E0,-3.173381090E-3,5.287408829E-2,-9.505271912E-3
3.129301700E0,-1.336553693E-2,5.641257763E-2,-9.354591370E-3
3.139341984E0,5.712926388E-3,2.229487896E-2,-4.388809204E-3
3.149382267E0,1.063385606E-2,7.647991180E-3,9.802818298E-3
3.159392032E0,4.827073216E-2,6.698727608E-3,8.535861969E-2
3.169401798E0,5.201980472E-2,-8.168339729E-3,3.188419342E-2
3.179411564E0,-1.003772020E-3,5.197286606E-3,-2.567005157E-2
3.189451847E0,3.806489706E-2,-1.004731655E-2,-8.674812317E-2
3.199461613E0,7.509589195E-4,-1.920866966E-2,-1.466789246E-1
3.209471378E0,-2.712956071E-2,-1.300334930E-2,-3.513050079E-2
3.219511661E0,-4.075834155E-2,-1.592278481E-2,-1.998710632E-2
3.229521427E0,-2.144432068E-2,-2.909052372E-2,8.912849426E-2
3.239561710E0,-4.503798485E-2,-5.906391144E-2,1.296310425E-1
3.249571476E0,-7.103204727E-3,-1.074862480E-2,1.739597321E-1
3.259611759E0,-6.443321705E-3,-1.788508892E-2,1.368665695E-1
3.269621525E0,-4.904121161E-3,1.604735851E-2,4.358673096E-2
3.279631290E0,-1.719516516E-2,5.504667759E-2,-4.303836823E-2
3.289641056E0,1.316764951E-2,5.291175842E-2,-1.187334061E-1
3.299650822E0,-2.830091119E-2,7.272553444E-2,-1.549510956E-1
3.309691105E0,1.989006996E-2,6.207847595E-2,-1.051673889E-1
3.319700870E0,-4.086583853E-3,2.510535717E-2,-4.624176025E-2
3.329741154E0,1.402869821E-2,3.124237061E-3,4.475784302E-2
3.339750919E0,-2.034652233E-2,-2.415740490E-2,4.858207703E-2
3.349791202E0,3.075510263E-3,-3.816497326E-2,7.586193085E-2
3.359800968E0,-2.032250166E-3,-7.704687119E-2,6.482410431E-2
3.369810734E0,7.331430912E-3,-4.511308670E-2,3.986072540E-2
3.379851017E0,2.133956552E-2,-6.611931324E-2,1.507377625E-2
3.389860782E0,-2.192696929E-2,-4.834043980E-2,-4.224967957E-2
3.399870548E0,-7.904320955E-3,-1.132035255E-2,-8.423805237E-3
3.409910831E0,8.335411549E-4,-4.081583023E-2,-6.972122192E-2
3.419920597E0,9.221673012E-3,1.570081711E-2,-3.574943542E-2
3.429960880E0,1.238885522E-2,-2.364706993E-2,1.637172699E-2
3.439970646E0,1.255095005E-3,-2.468228340E-3,9.558200836E-2
3.449980411E0,6.645619869E-4,7.824897766E-3,1.787662506E-2
3.460020695E0,-3.191083670E-2,2.189826965E-2,-2.059173584E-2
3.470030460E0,-2.096813917E-2,4.598498344E-2,-6.801509857E-2
3.480070743E0,-5.172193050E-3,1.494038105E-2,-5.297660828E-2
3.490080509E0,-9.467661381E-3,3.818726540E-2,-6.599903107E-2
3.500120792E0,-1.023542881E-2,-3.923892975E-3,7.703685760E-2
3.510130558E0,7.294863462E-3,2.489948273E-2,9.478187561E-2
3.520140323E0,-2.330538630E-2,5.737483501E-2,1.212482452E-1
3.530180607E0,3.696957231E-2,1.736474037E-2,7.656288147E-2
3.540190372E0,2.637207508E-3,3.416550159E-2,5.148696899E-2
3.550200138E0,2.416551113E-3,2.694869041E-2,7.813453674E-3
3.560209904E0,-2.043902874E-3,4.363596439E-2,-4.484844208E-2
3.570250187E0,8.053272963E-3,2.750635147E-2,-3.953456879E-2
3.580259952E0,-1.066884398E-2,-1.155114174E-2,-1.532840729E-2
3.590300236E0,-1.569402218E-2,-1.640510559E-2,-1.973438263E-2
3.600310001E0,-2.623298764E-2,-4.078614712E-2,8.840560913E-3
3.610350284E0,1.041114330E-3,-6.529831886E-2,1.759910583E-2
3.620360050E0,-2.802723646E-2,-5.214214325E-4,2.626037598E-2
3.630369816E0,-1.812854409E-2,-1.739454269E-2,6.429672241E-3
3.640410099E0,1.773923635E-3,-4.358041286E-2,-2.230167389E-2
3.650419864E0,7.234781981E-3,-3.552532196E-2,-1.266288757E-2
3.660460148E0,1.649513841E-2,-2.641987801E-2,-1.266479492E-2
3.670469913E0,-1.251512766E-2,-3.550183773E-2,-1.716518402E-2
3.680479679E0,1.069748402E-2,-1.535391808E-2,-1.191139221E-2
3.690519962E0,-1.367336512E-2,-4.687666893E-3,-4.955196381E-2
3.700529728E0,-1.864144206E-2,-1.768243313E-2,1.742839813E-2
3.710539493E0,3.595650196E-4,3.993153572E-2,-4.394817352E-2
3.720549259E0,5.111396313E-4,4.413485527E-2,-1.498699188E-2
3.730589542E0,-3.285279870E-2,3.804123402E-2,8.942604065E-3
3.740629825E0,2.914276719E-2,-6.903290749E-3,3.210258484E-2
3.750639591E0,5.072921515E-3,2.397298813E-2,6.866931915E-2
3.760649357E0,-2.345219254E-2,5.835044384E-2,3.879070282E-2
3.770689640E0,-3.253120184E-2,4.041957855E-2,1.688003540E-4
3.780699406E0,-1.259705424E-2,4.794323444E-2,1.964569092E-4
3.790739689E0,-2.572774887E-3,1.832175255E-2,-9.190559387E-3
3.800749454E0,-2.603650093E-3,3.215944767E-2,6.211948395E-2
3.810759220E0,-2.808392048E-3,3.199112415E-2,1.853942871E-2
3.820799503E0,3.092500567E-2,-1.594567299E-2,-2.472209930E-2
3.830809269E0,1.715502143E-2,-1.075148582E-2,1.365184784E-2
3.840819034E0,2.252638340E-2,-2.921020985E-2,1.798725128E-2
3.850828800E0,3.186100721E-2,-2.865600586E-2,-1.584053040E-3
3.860869083E0,3.125157952E-2,-2.326762676E-2,-1.120376587E-2
3.870878849E0,-1.209187508E-2,-2.280724049E-2,-2.045059204E-2
3.880919132E0,-4.470941424E-2,-1.757812500E-2,-1.524801254E-1
3.890928898E0,-1.116603613E-3,-2.574849129E-2,-9.287357330E-2
3.900969181E0,-5.543291569E-3,3.358340263E-2,-2.935123444E-2
3.910978947E0,-4.359492660E-2,-1.712942123E-2,9.119033813E-3
3.921019230E0,-6.727787852E-2,-1.604044437E-2,7.988739014E-2
3.931028995E0,-5.300286412E-2,-7.757425308E-3,1.776428223E-1
3.941069279E0,-3.394341469E-2,-6.978869438E-3,2.212781906E-1
3.951079044E0,-1.899707317E-2,1.513612270E-2,1.362953186E-1
3.961088810E0,1.555025578E-3,2.624857426E-2,7.155609131E-2
3.971098575E0,1.283055544E-2,8.097410202E-2,-5.831527710E-2
3.981138859E0,3.353047371E-2,6.114482880E-2,-1.192922592E-1
3.991148624E0,2.510976791E-2,5.858802795E-2,-1.313247681E-1
4.001158390E0,2.556353807E-2,7.830476761E-2,-1.430168152E-1
4.011229191E0,-1.193830371E-2,4.770660400E-2,-4.561233521E-2
4.021238956E0,-2.645450830E-2,2.251744270E-2,7.371044159E-2
4.036192570E0,1.080343127E-2,-4.393267632E-2,5.403995514E-2
4.046263370E0,-4.270941019E-3,-4.145908356E-2,5.841159821E-2
4.056273136E0,-5.318045616E-3,-4.938995838E-2,2.437973022E-2
4.066313419E0,-2.960598469E-2,-2.018725872E-2,1.445388794E-2
4.076323185E0,-1.543313265E-2,-3.904914856E-2,1.902866364E-2
4.086332950E0,3.214031458E-3,-5.353546143E-2,-1.921463013E-2
4.096342716E0,7.252514362E-3,-2.030718327E-2,-6.625080109E-2
4.106382999E0,6.033092737E-3,-4.900908470E-2,-2.757740021E-2
4.116423282E0,9.256720543E-3,-1.599442959E-2,-3.405570984E-3
4.126433048E0,-2.517461777E-3,-2.689611912E-2,8.576965332E-2
4.136442814E0,-1.375165582E-2,8.949041367E-3,8.406829834E-2
4.146483097E0,4.906862974E-3,2.870965004E-2,-2.167701721E-2
4.156492863E0,-2.284169197E-2,3.886532784E-2,-5.018711090E-2
4.166533146E0,-1.198211312E-2,-2.568840981E-3,-6.857872009E-2
4.176542911E0,3.088384867E-3,3.868985176E-2,-5.806541443E-2
4.186552677E0,1.702144742E-2,1.407849789E-2,5.646514893E-2
4.196592960E0,-3.790766001E-3,-1.489961147E-2,1.074237823E-1
4.206602726E0,-2.012670040E-2,-1.945972443E-3,9.110546112E-2
4.216612491E0,-8.364051580E-3,6.294250488E-4,1.032209396E-1
4.226652775E0,-2.998414636E-2,3.285884857E-3,8.243465424E-2
4.236662540E0,-3.204697371E-2,9.163618088E-4,-4.212379456E-3
4.246702823E0,-1.898920536E-2,3.720235825E-2,-2.321624756E-2
4.256712589E0,-4.321593046E-2,4.507791996E-2,-3.715896606E-2
4.266752872E0,-1.940622926E-2,6.059288979E-3,-6.473636627E-2
4.276762638E0,-3.890913725E-2,-1.344108582E-2,-7.033348083E-3
4.286772404E0,-2.037325501E-2,-2.789139748E-2,7.236480713E-3
4.296812687E0,-2.156868577E-2,-1.894021034E-2,6.950378418E-3
4.306822452E0,1.072955132E-2,-1.576340199E-2,1.105213165E-2
4.316862736E0,-1.810857654E-2,6.008028984E-3,-2.705001831E-2
4.326872501E0,-8.333563805E-3,8.458852768E-3,-5.546283722E-2
4.336882267E0,1.863330603E-3,-2.933859825E-3,2.055168152E-3
4.346922550E0,-2.241462469E-3,-1.874291897E-2,3.044414520E-2
4.356932316E0,-1.089894772E-2,-1.921415329E-2,-3.218650818E-3
4.366942081E0,2.252939343E-2,-2.867841721E-2,2.509498596E-2
4.376951847E0,-2.073013783E-2,-9.524703026E-3,6.080627441E-3
4.386992130E0,1.210358739E-2,3.307008743E-2,2.477836609E-2
4.397001896E0,-1.221585274E-2,-9.973406792E-3,-1.378250122E-2
4.407042179E0,6.407380104E-3,3.842830658E-3,-1.824665070E-2
4.417051945E0,1.565480232E-2,-1.730322838E-3,2.441501617E-2
4.427061710E0,3.495949507E-2,1.642131805E-2,-1.826858521E-2
4.437101993E0,3.045210242E-2,3.362917900E-2,5.921363831E-3
4.447111759E0,1.178747416E-2,3.598093987E-2,-7.022094727E-2
4.457152042E0,-2.047869563E-2,4.760158062E-2,3.463935852E-2
4.467161808E0,-1.027897000E-2,6.737828255E-3,2.435779572E-2
4.477202091E0,-3.833046556E-2,2.767729759E-2,-4.776954651E-3
4.487211857E0,-2.318528295E-2,2.465629578E-2,1.379680634E-2
4.497221622E0,5.759328604E-3,2.253794670E-2,1.317024231E-2
4.507231388E0,-2.223846316E-2,4.010248184E-2,1.315021515E-2
4.517271671E0,-2.753019333E-3,1.554059982E-2,8.131980896E-3
4.527281437E0,-3.093314171E-2,-8.958578110E-3,2.666473389E-2
4.537321720E0,8.255153894E-3,-3.826022148E-2,2.602577209E-2
4.547331486E0,-3.780701756E-2,-3.854143620E-2,1.162338257E-2
4.557371769E0,-4.522567987E-2,-3.366887569E-2,-2.636337280E-2
4.567381534E0,8.321493864E-3,-4.819560051E-2,-7.034301758E-3
4.577391300E0,2.149456739E-2,-1.970064640E-2,2.118396759E-2
4.587431583E0,-1.276370883E-2,-3.921997547E-2,-2.643299103E-2
4.597441349E0,-8.622080088E-3,-2.032303810E-2,-9.704971313E-2
4.607451114E0,-4.123747349E-3,1.323604584E-2,-7.178592682E-2
4.617460880E0,-2.332368493E-2,-2.897286415E-2,5.567550659E-3
4.627531681E0,-6.651136279E-2,-1.829159260E-2,6.231594086E-2
4.637541447E0,-4.759615660E-2,5.604028702E-3,1.180992126E-1
4.647551212E0,-2.894556522E-2,2.689206600E-2,1.772956848E-1
4.657560978E0,-1.936259866E-2,1.269531250E-2,1.736106873E-1
4.667601261E0,-3.740924597E-2,7.250809669E-2,1.276674271E-1
4.677611027E0,-1.681080461E-2,6.466209888E-2,1.600265503E-3
4.687620792E0,2.292302251E-2,9.992861748E-2,-4.643154144E-2
4.697630558E0,-4.532575607E-3,7.999777794E-2,-1.265697479E-1
4.707670841E0,3.878512979E-2,8.192384243E-2,-1.626653671E-1
4.717680607E0,4.337859154E-2,4.848432541E-2,-1.408309937E-1
4.727720890E0,1.423352957E-2,7.482171059E-3,-3.434181213E-2
4.737730656E0,7.028213143E-2,-1.858043671E-2,8.987426758E-3
4.747770939E0,4.494029284E-2,-6.886148453E-2,7.039546967E-2
4.757780704E0,1.027458906E-2,-5.325436592E-2,8.294963837E-2
4.767790470E0,1.848438382E-2,-5.337858200E-2,3.886985779E-2
4.777830753E0,2.211183310E-2,-9.690594673E-2,5.212116241E-2
4.787840519E0,2.596074343E-2,-7.884550095E-2,1.804924011E-2
4.797850284E0,2.031520009E-2,-5.600571632E-2,-3.940105438E-2
4.807890568E0,6.707906723E-4,-3.259181976E-2,-4.825496674E-2
4.817900333E0,-4.421591759E-3,-1.846015453E-2,-3.802585602E-2
4.827910099E0,4.396200180E-3,6.257295609E-4,-6.090927124E-2
4.837950382E0,-1.576521993E-2,-9.358286858E-3,1.547527313E-2
4.847990665E0,-2.628356218E-2,1.313376427E-2,6.216526031E-2
4.858000431E0,-5.016824603E-2,6.246638298E-2,4.191112518E-2
4.868010197E0,-5.379179120E-2,7.215666771E-2,1.226425171E-2
4.878050480E0,-6.075829268E-2,5.818915367E-2,-2.132129669E-2
4.888060245E0,-1.509022713E-2,6.470823288E-2,-6.823730469E-2
4.898070011E0,-3.248423338E-2,7.294523716E-2,-4.804229736E-2
4.908110294E0,-3.179949522E-2,3.983998299E-2,3.809928894E-2
4.918120060E0,-2.241528034E-2,1.663219929E-2,1.083745956E-1
4.928251896E0,-9.066700935E-3,2.650177479E-2,9.241008759E-2
4.938292179E0,-2.417871356E-2,2.332806587E-3,8.105468750E-2
4.948332462E0,8.141845465E-3,1.109087467E-2,2.760505676E-2
4.963194523E0,-2.124223113E-2,3.325474262E-2,3.279685974E-3
4.973234806E0,7.273852825E-3,3.828763962E-3,-1.551914215E-2
4.983275089E0,-2.242356539E-3,1.800346375E-2,-1.987075806E-2
4.993317085E0,-7.320255041E-3,-3.406047821E-2,-4.776763916E-2
5.003326850E0,-8.198827505E-3,-2.418172359E-2,-9.204864502E-3
5.013336616E0,-1.836207509E-2,-4.303455353E-4,5.149841309E-5
5.023376899E0,-4.271337390E-2,-1.073884964E-2,-1.884841919E-2
5.033386665E0,5.829334259E-5,-6.762981415E-3,-5.206108093E-2
5.043426948E0,-2.847096324E-2,2.565503120E-2,-5.581951141E-2
5.053436714E0,5.262166262E-3,-1.769542694E-2,-5.030536652E-2
5.063476997E0,9.806662798E-3,-4.600107670E-2,-3.038024902E-2
5.073486762E0,-7.274746895E-5,-5.016839504E-2,-6.167411804E-3
5.083496528E0,5.188098550E-2,-7.814240456E-2,-6.109237671E-3
5.093506294E0,7.822215557E-3,-3.040003777E-2,7.860183716E-3
5.103546577E0,3.095883131E-2,-2.608442307E-2,-1.970291138E-3
5.113556343E0,1.147046685E-2,5.951404572E-3,3.118133545E-2
5.123596626E0,5.965173244E-3,-2.367115021E-2,6.777763367E-3
5.133606391E0,1.550552249E-2,7.913708687E-3,1.600265503E-2
5.143646675E0,5.837380886E-3,2.948141098E-2,-1.789474487E-2
5.153656440E0,2.963763475E-2,7.928967476E-3,1.031017303E-2
5.163696723E0,1.074793935E-2,6.245815754E-2,5.475997925E-3
5.173706489E0,-7.519096136E-3,5.483376980E-2,-2.321243286E-2
5.183716255E0,-1.627257466E-2,6.632661819E-2,-4.204082489E-2
5.193756538E0,-1.561200619E-2,6.327414513E-2,5.720138550E-3
5.203766303E0,-2.451556921E-2,6.540441513E-2,-1.843738556E-2
5.213806587E0,-9.755730629E-3,5.325949192E-2,-1.847934723E-2
5.223816352E0,-1.446372271E-2,4.166877270E-2,-7.023334503E-2
5.233826118E0,-4.943042994E-3,7.492303848E-3,1.846313477E-3
5.243835884E0,-6.186071038E-2,1.613771915E-2,-2.678871155E-3
5.253845649E0,-2.331447601E-2,1.063704491E-3,1.623535156E-2
5.263885932E0,-2.736446261E-2,-1.942288876E-2,1.446723938E-3
5.273895698E0,-3.555047512E-2,-5.890929699E-2,-3.194713593E-2
5.283935981E0,-3.819295764E-2,-2.668929100E-2,-3.208160400E-3
5.293945747E0,2.484655380E-2,-1.853203773E-2,-2.711391449E-2
5.303955512E0,5.737772584E-2,-4.806125164E-2,-7.961273193E-3
5.313965278E0,2.704903483E-2,-5.833721161E-2,-2.249431610E-2
5.324005561E0,-1.231133938E-2,-2.606678009E-2,-3.179836273E-2
5.334015327E0,6.723642349E-3,-4.630005360E-2,-9.734725952E-2
5.344055610E0,1.166632771E-2,-1.770091057E-2,-4.869842529E-2
5.354095893E0,-3.027492762E-2,-2.868771553E-3,-3.387928009E-2
5.364105659E0,-1.221448183E-3,1.732921600E-2,5.686092377E-2
5.374115425E0,-5.333358049E-2,-1.246452332E-3,7.494926453E-2
5.384155708E0,-4.814687371E-2,3.154432774E-2,8.798027039E-2
5.394165473E0,-6.141898036E-2,5.739891529E-2,1.239881516E-1
5.404205757E0,-4.100194573E-2,6.783437729E-2,1.217126846E-1
5.414215522E0,-2.073752880E-2,9.222590923E-2,3.448581696E-2
5.424225288E0,1.335787773E-2,5.986964703E-2,-4.681396484E-2
5.434235053E0,2.222973108E-2,1.101258993E-1,-9.832382202E-2
5.444275337E0,1.155591011E-2,1.000092030E-1,-9.617996216E-2
5.454285102E0,1.961955428E-2,5.399882793E-2,-9.869861603E-2
5.464325386E0,1.348787546E-2,3.802680969E-2,-1.014337540E-1
5.474335151E0,2.137294412E-2,-1.634585857E-2,-3.333282471E-2
5.484375434E0,-3.639578819E-3,-6.082952023E-2,2.435207367E-2
5.494385200E0,1.398393512E-2,-6.388723850E-2,1.418590546E-2
5.504425483E0,-1.584640145E-2,-9.672784805E-2,4.218292236E-2
5.514435249E0,-1.662039757E-2,-9.762704372E-2,3.159332275E-2
5.524445014E0,-2.451688051E-3,-9.455358982E-2,-7.336616516E-3
5.534454780E0,1.164254546E-2,-7.317113876E-2,5.860996246E-2
5.544495063E0,-1.638346910E-2,-6.592154503E-2,-1.335906982E-2
5.554504829E0,-6.127774715E-3,-4.424440861E-2,-6.087207794E-2
5.564545112E0,2.197554708E-2,1.094067097E-2,-7.975578308E-3
5.574554878E0,1.567625999E-2,1.819515228E-2,3.449535370E-2
5.584564643E0,-9.610861540E-3,2.495336533E-2,5.697727203E-2
5.594574409E0,-2.434870601E-2,6.441557407E-2,-1.176834106E-3
5.604614692E0,4.652082920E-3,6.061863899E-2,-5.362892151E-2
5.614624458E0,2.003464103E-2,6.247901917E-2,-9.564590454E-2
5.624664741E0,-7.537752390E-3,5.122745037E-2,-5.583572388E-2
5.634674507E0,-1.178649068E-2,5.559611320E-2,1.936912537E-3
5.644714790E0,4.008844495E-2,1.754748821E-2,6.338405609E-2
5.654724555E0,5.320638418E-3,-2.559220791E-2,1.046924591E-1
5.664764839E0,2.289888263E-2,1.730322838E-3,7.897663116E-2
5.674774604E0,1.189219952E-2,-2.381801605E-2,2.528858185E-2
5.684784370E0,1.127988100E-3,2.311110497E-3,-8.494377136E-3
5.694794136E0,-3.906965256E-3,1.347744465E-2,-2.761363983E-2
5.704834419E0,-8.209019899E-3,6.443262100E-4,8.039474487E-4
5.714844184E0,-8.022010326E-3,1.646959782E-2,-2.290725708E-2
5.724884468E0,2.063587308E-2,-4.875993729E-2,-2.778244019E-2
5.734894233E0,-3.675636649E-2,-3.748559952E-2,5.473136902E-3
5.744903999E0,-2.246645093E-2,-2.617847919E-2,-1.871585846E-2
5.754944282E0,-2.736514807E-2,-1.525664330E-2,-1.921272278E-2
5.764954048E0,-1.293799281E-2,-3.273630142E-2,-5.241680145E-2
5.774963813E0,1.545876265E-3,4.553401470E-2,-5.183696747E-2
5.785004096E0,6.503850222E-3,1.894617081E-2,9.775161743E-4
5.795013862E0,-2.155843377E-2,-1.135742664E-2,5.794811249E-2
5.805023628E0,-1.878947020E-3,-8.374333382E-3,-2.360534668E-2
5.815063911E0,2.890676260E-3,-1.924014091E-2,3.310489655E-2
5.825104194E0,1.213675737E-2,-2.110147476E-2,1.819419861E-2
5.835113960E0,6.758868694E-3,-1.833510399E-2,1.771831512E-2
5.845123725E0,1.505672932E-3,8.165478706E-3,-6.518363953E-3
5.855164009E0,-3.636986017E-3,2.014517784E-2,1.721191406E-2
5.865173774E0,-8.329689503E-3,2.190601826E-2,7.177352905E-3
5.875214057E0,-2.235978842E-2,3.346002102E-2,6.988525391E-3
5.885223823E0,1.509040594E-3,2.059102058E-3,1.888275146E-3
5.895233589E0,-7.380753756E-3,1.821267605E-2,2.048206329E-2
5.905243354E0,2.637049556E-2,1.000976562E-2,-2.713966370E-2
5.915253120E0,-1.617127657E-2,3.511524200E-2,-2.689743042E-2
5.925293403E0,-5.913048983E-3,-2.042651176E-3,6.394386292E-3
5.935303169E0,-6.191730499E-4,3.207635880E-2,-3.678226471E-2
5.945343452E0,-1.418870687E-2,-5.103349686E-3,-1.776027679E-2
5.955383735E0,-2.780354023E-2,-8.751630783E-3,-8.424758911E-3
5.965393501E0,-1.288041472E-2,2.007484436E-2,1.950454712E-2
5.975403266E0,6.554514170E-3,1.570534706E-2,4.288673401E-3
5.985413032E0,1.117575169E-2,2.142107487E-2,3.926277161E-3
5.995453315E0,-1.263648272E-2,1.369011402E-2,-5.789375305E-2
6.005463081E0,-2.656617761E-2,-1.740598679E-2,-5.091667175E-3
6.015503364E0,7.007062435E-3,4.508614540E-3,-5.227088928E-3
6.025513130E0,-1.644814014E-2,-2.134382725E-2,3.232955933E-2
6.035553413E0,-5.978792906E-3,-2.404260635E-2,-1.077175140E-2
6.045563178E0,9.924620390E-3,-7.291793823E-3,-5.337047577E-2
6.055572944E0,-2.620518208E-3,4.645347595E-3,4.276275635E-3
6.065582710E0,1.680064201E-2,-4.071915150E-2,3.596305847E-3
6.075622993E0,3.028288484E-2,-2.895581722E-2,-1.738548279E-3
6.085632759E0,3.140270710E-4,-8.408665657E-3,7.384300232E-3
6.095673042E0,-9.844809771E-3,-3.574949503E-2,-6.375312805E-2
6.105682807E0,-4.404395819E-3,-5.423128605E-3,-9.095478058E-2
6.115723091E0,1.959034801E-2,-3.120356798E-2,-1.866817474E-2
6.125732856E0,-1.391676068E-2,1.126587391E-3,6.661891937E-2
6.135742622E0,-3.806117177E-2,4.116415977E-3,1.173706055E-1
6.145782905E0,-6.227833033E-2,2.531224489E-2,1.383018494E-1
6.155792671E0,-2.428457141E-2,1.143473387E-2,1.591129303E-1
6.165802436E0,-1.467180252E-2,5.332660675E-2,1.417074203E-1
6.175842719E0,1.165270805E-4,7.115435600E-2,7.754421234E-2
6.185852485E0,5.533695221E-3,9.901380539E-2,-3.294467926E-2
6.195892768E0,2.989089489E-2,8.061450720E-2,-8.937644958E-2
6.205902534E0,2.078992128E-2,7.359576225E-2,-1.354990005E-1
6.215912300E0,3.102812171E-2,6.362456083E-2,-1.472768784E-1
6.225952583E0,-2.597942948E-2,3.664445877E-2,-1.303405762E-1
6.235962348E0,2.669107914E-2,-8.447527885E-3,-4.748535156E-2
6.245972114E0,1.171401143E-2,-3.901636600E-2,-8.481979370E-3
6.256012397E0,-4.580503702E-2,-8.029007912E-2,2.466201782E-2
6.266022163E0,-3.168061376E-2,-1.128863692E-1,5.263805389E-2
6.276062446E0,-7.961452007E-3,-9.449988604E-2,3.268146515E-2
6.286072212E0,-6.449446082E-2,-1.102312207E-1,-1.255989075E-3
6.296081977E0,3.257423639E-3,-5.979782343E-2,-2.520275116E-2
6.306122261E0,3.590375185E-3,-4.251927137E-2,-2.999305725E-2
6.316132026E0,-1.088178158E-2,2.222692966E-2,-4.387283325E-2
6.326172309E0,2.423644066E-3,2.985775471E-2,-1.980686188E-2
6.336182075E0,5.135506392E-3,1.353377104E-2,3.718185425E-2
6.346191841E0,-1.179987192E-2,3.037691116E-2,6.436920166E-2
6.356293159E0,1.922655106E-2,4.609811306E-2,2.494430542E-2
6.371216255E0,4.608482122E-3,6.858950853E-2,-4.245567322E-2
6.386230903E0,1.593405008E-2,3.980481625E-2,-7.451725006E-2
6.396301704E0,2.158591151E-2,6.690335274E-2,-4.956054688E-2
6.406311469E0,-1.894503832E-3,1.431083679E-2,-2.018165588E-2
6.416351753E0,-6.976187229E-3,-4.055202007E-3,8.898448944E-2
6.426361518E0,1.305162907E-3,2.423143387E-2,8.752727509E-2
6.436371284E0,-1.898282766E-2,-2.926146984E-2,5.735969543E-2
6.446411567E0,-7.292032242E-4,-2.641063929E-2,4.671859741E-2
6.456421333E0,2.230995893E-2,-1.447033882E-2,7.774353027E-3
6.466461616E0,-6.225854158E-3,-1.174837351E-2,-3.960800171E-2
6.476471382E0,2.735790610E-2,-1.853418350E-2,-4.388427734E-2
6.486481147E0,2.249640226E-2,-3.907191753E-2,-2.911567688E-2
6.496521430E0,3.166288137E-3,-3.567308187E-2,-2.416515350E-2
6.506531196E0,-1.921892166E-3,-5.657386780E-2,-1.420307159E-2
6.516540962E0,-4.937928915E-2,-2.988606691E-2,-3.327751160E-2
6.526581245E0,-3.471499681E-2,-2.300357819E-2,-4.248142242E-2
6.536591011E0,-1.005962491E-2,2.185595036E-2,-5.611610413E-2
6.546600776E0,-3.309673071E-2,-3.806596994E-2,-3.665637970E-2
6.556641059E0,-1.305150986E-2,-1.181674004E-2,-6.929779053E-2
6.566681343E0,1.908481121E-3,1.865714788E-2,-7.010459900E-3
6.576691108E0,-2.132597566E-2,-2.208018303E-2,1.641273499E-2
6.586700874E0,7.408112288E-3,-1.515120268E-2,3.968429565E-2
6.596741157E0,7.344722748E-3,-1.810252666E-2,3.417015076E-2
6.606750923E0,2.295374870E-3,2.636963129E-2,2.381134033E-2
6.616791206E0,-2.621585131E-2,-1.055973768E-2,-3.938674927E-4
6.626800971E0,-1.168110967E-2,9.984910488E-3,3.953933716E-3
6.636810737E0,-3.986874223E-2,1.134723425E-2,1.788711548E-2
6.646851020E0,-5.959153175E-3,1.743334532E-2,3.093719482E-3
6.656860786E0,2.264392376E-2,1.360177994E-2,3.054618835E-3
6.666870552E0,-3.911805153E-2,2.418673038E-2,-1.602172852E-2
6.676880317E0,-2.402067184E-2,3.960156441E-2,1.712131500E-2
6.686920600E0,-9.014725685E-3,3.136008978E-2,-1.630687714E-2
6.696930366E0,6.107687950E-4,8.805751801E-3,-1.629734039E-2
6.706970649E0,-2.250558138E-2,2.006781101E-2,2.423286438E-3
6.716980415E0,1.572027802E-2,-7.277369499E-3,4.954433441E-2
6.727020698E0,1.321524382E-3,3.500819206E-3,1.046752930E-2
6.737030464E0,2.045249939E-2,-1.757144928E-4,-4.182815552E-3
6.747040229E0,2.965089679E-2,5.679845810E-3,-1.382541656E-2
6.757049995E0,4.373109341E-2,-2.651679516E-2,-1.415348053E-2
6.767090278E0,6.262424588E-2,-6.305277348E-3,9.320259094E-3
6.777100044E0,-1.354646683E-2,-5.293309689E-3,-4.312419891E-2
6.787140327E0,1.571443677E-2,-1.865100861E-2,-9.886741638E-3
6.797150093E0,-2.340912819E-3,1.753926277E-3,-9.783744812E-3
6.807190376E0,-1.569014788E-2,-1.105755568E-2,4.523277283E-3
6.817200141E0,-3.360748291E-2,-1.415759325E-2,2.783012390E-2
6.827240425E0,-1.348197460E-2,-3.046751022E-3,2.264976501E-2
6.837250190E0,-8.186787367E-3,1.217079163E-2,-1.125240326E-2
6.847259956E0,1.993358135E-3,8.550107479E-3,-4.001426697E-2
6.857269721E0,2.836406231E-3,2.395689487E-2,-1.712799072E-3
6.867310005E0,-1.525980234E-2,6.272971630E-3,-6.894111633E-3
6.877319770E0,-1.939305663E-2,3.144264221E-2,-2.584362030E-2
6.887360053E0,-1.348301768E-2,2.807629108E-2,-7.291030884E-2
6.897369819E0,-2.583596110E-2,6.003141403E-3,-4.830837250E-2
6.907379585E0,-1.485288143E-2,3.274202347E-3,-5.064964294E-3
6.917419868E0,1.432606578E-2,-3.744632006E-2,3.742599487E-2
6.927460151E0,5.652719736E-2,-2.614289522E-2,3.172874451E-2
6.937469917E0,-6.678581238E-3,-2.484190464E-2,4.506301880E-2
6.947479682E0,-1.828879118E-3,-2.846664190E-2,-3.148460388E-2
6.957489448E0,2.231976390E-2,1.121556759E-2,-4.039669037E-2
6.967499214E0,-1.602929831E-2,-3.836292028E-2,-5.391407013E-2
6.977539497E0,-1.748234034E-3,-1.117861271E-2,-4.398918152E-2
6.987549262E0,-7.690519094E-3,2.052730322E-2,5.599880219E-2
6.997589546E0,-4.714846611E-2,-1.974415779E-2,5.951976776E-2
7.007629829E0,-4.363015294E-2,2.448445559E-2,1.243867874E-1
7.017639594E0,-3.898057342E-2,1.850843430E-2,1.977224350E-1
7.027649360E0,-1.033025980E-2,1.497739553E-2,1.039476395E-1
7.037659126E0,-5.003005266E-3,5.809825659E-2,6.849956512E-2
7.047699409E0,7.034242153E-4,3.452718258E-2,-3.737831116E-2
7.057709175E0,-3.497213125E-3,2.700203657E-2,-7.498931885E-2
7.067718940E0,-7.588982582E-3,3.054744005E-2,-1.118583679E-1
7.077728706E0,7.608741522E-3,-6.610631943E-3,-1.057538986E-1
7.087768989E0,-1.743674278E-3,-1.801007986E-2,-1.135940552E-1
7.097778755E0,7.673233747E-3,-5.676907301E-2,-2.222251892E-2
7.107819038E0,-2.792596817E-3,-4.289633036E-2,-3.144645691E-2
7.117828803E0,1.493459940E-2,-2.466017008E-2,2.096271515E-2
7.127869087E0,-1.521945000E-2,-6.438380480E-2,-5.990791321E-2
7.137878852E0,-2.239376307E-3,-3.791612387E-2,-1.674652100E-2
7.147888618E0,1.062688231E-2,-6.028115749E-2,2.128601074E-3
7.157928901E0,-1.917108893E-2,-3.530615568E-2,-2.205181122E-2
7.167938667E0,-1.496499777E-2,-3.007483482E-2,3.938674927E-2
7.177948432E0,3.633677959E-3,-1.606279612E-2,-8.907318115E-3
7.187988716E0,-2.766579390E-3,-1.640021801E-2,7.603549957E-2
7.198028999E0,-9.056985378E-3,1.152205467E-2,9.762477875E-2
7.208038764E0,-2.895593643E-2,1.953440905E-2,5.779933929E-2
7.218048530E0,-2.855741978E-2,3.231173754E-2,1.385021210E-2
7.228088813E0,-3.156557679E-2,2.199232578E-2,-6.705760956E-2
7.238098579E0,8.339762688E-3,-5.146861076E-4,-1.087503433E-1
7.248108344E0,-2.357840538E-2,2.655047178E-2,-6.900882721E-2
7.258148628E0,1.480403543E-2,-2.373576164E-3,-3.015232086E-2
7.268158393E0,-4.811495543E-3,-2.184331417E-3,5.541610718E-2
7.278168159E0,-1.050347090E-2,-3.576093912E-2,4.007434845E-2
7.288299995E0,-2.668291330E-3,-2.748996019E-2,6.269454956E-2
7.298340278E0,1.477450132E-2,-3.435391188E-2,5.669689178E-2
7.313232856E0,2.301996946E-2,-5.979478359E-3,3.610897064E-2
7.323303657E0,-3.423866630E-2,-1.891851425E-2,1.627349854E-2
7.333313423E0,2.762523293E-2,1.139092445E-2,-3.177070618E-2
7.343353706E0,3.353208303E-3,-5.770623684E-3,-3.655242920E-2
7.353393989E0,1.667249203E-2,-8.052408695E-3,-2.175331116E-2
7.363403755E0,-1.239830256E-2,-3.341174126E-2,-8.306789398E-2
7.373413520E0,1.643806696E-3,-5.852758884E-3,-9.111976624E-2
7.383453803E0,-2.207574248E-2,-1.958787441E-3,-5.185127258E-2
7.393463569E0,-7.120549679E-3,-3.104221821E-2,-8.318901062E-3
7.403473335E0,-1.638045907E-2,-3.661108017E-2,1.064109802E-2
7.413483100E0,-1.122802496E-2,-3.733998537E-2,4.811859131E-2
7.423523384E0,-6.393373013E-3,-3.407299519E-2,-4.870414734E-3
7.433533149E0,7.549822330E-3,-2.670860291E-2,1.873016357E-2
7.443573432E0,7.106631994E-3,-2.416408062E-2,-5.092620850E-4
7.453583198E0,-2.657920122E-2,-1.698708534E-2,-1.963329315E-2
7.463623481E0,-2.305686474E-3,4.571855068E-3,1.386260986E-2
7.473633247E0,7.552206516E-3,-3.044718504E-2,-2.438163757E-2
7.483643012E0,-1.661747694E-3,1.378357410E-3,3.282833099E-2
7.493683296E0,-1.094046235E-2,-7.914900780E-4,1.325416565E-2
7.503693061E0,-1.393437386E-3,-1.196622849E-2,4.118251801E-2
7.513733344E0,-2.520340681E-2,2.905511856E-2,1.688957214E-2
7.523743110E0,-3.456160426E-2,3.664785624E-2,-5.455303192E-2
7.533752876E0,-1.478481293E-2,2.052605152E-2,-2.079963684E-2
7.543793159E0,4.499554634E-3,-9.451985359E-3,-1.592826843E-2
7.553802925E0,-2.376154065E-2,-1.988232136E-2,7.737159729E-3
7.563812690E0,-1.388409734E-2,-6.276547909E-3,4.073524475E-2
7.573852973E0,-3.659307957E-3,-2.649837732E-2,-1.184558868E-2
7.583862739E0,-1.758629084E-2,-1.835215092E-2,4.477405548E-2
7.593872505E0,-3.090092540E-2,-2.462357283E-2,2.487564087E-2
7.603912788E0,3.655502200E-2,-2.631163597E-2,5.748367310E-2
7.613922553E0,3.651410341E-3,1.968091726E-2,1.857089996E-2
7.623932319E0,1.835709810E-2,-3.902506828E-2,-4.434585571E-4
7.633972602E0,-2.318933606E-2,-1.136517525E-2,-5.743217468E-2
7.643982368E0,-2.787560225E-3,2.886176109E-3,-4.701042175E-2
7.654022651E0,-1.117670536E-2,-1.068198681E-2,-1.750755310E-2
7.664032417E0,3.366947174E-3,-2.360045910E-2,-1.258850098E-2
7.674072700E0,-1.134768128E-2,-1.247537136E-2,6.688117981E-3
7.684082466E0,3.100454807E-3,1.257359982E-2,-2.735137939E-3
7.699066596E0,3.119081259E-3,4.238128662E-3,1.654243469E-2
7.709106880E0,-1.114299893E-2,-2.895027399E-2,7.768535614E-2
7.719116645E0,8.877217770E-3,-3.894078732E-2,5.314636230E-2
7.729126411E0,-2.336367965E-2,-2.533859015E-2,-9.326934814E-3
7.739166694E0,-1.650434732E-2,1.739621162E-2,1.014518738E-2
7.749176460E0,-1.054462790E-2,-1.594597101E-2,-3.854751587E-3
7.759186225E0,4.212057590E-2,-5.672872066E-3,1.555728912E-2
7.769226509E0,3.600406647E-2,2.803206444E-2,1.098632812E-3
7.779236274E0,4.461470246E-2,1.853978634E-2,-5.580234528E-2
7.789276557E0,1.691520214E-3,3.581941128E-3,-8.329296112E-2
7.799286323E0,1.595160365E-2,2.715367079E-2,-6.749057770E-2
7.809296089E0,1.128357649E-2,-6.386160851E-3,1.877593994E-2
7.819336372E0,1.071542501E-2,-2.087610960E-2,-5.245208740E-3
7.829346137E0,2.654790878E-4,-2.734005451E-3,7.997894287E-2
7.839386421E0,-8.535712957E-2,2.342849970E-2,1.020240784E-1
7.849396186E0,-4.187166691E-2,3.826606274E-2,1.235466003E-1
7.859436469E0,-5.485078692E-2,1.892679930E-2,5.950641632E-2
7.869446235E0,-5.309075117E-2,3.247892857E-2,5.365467072E-2
7.879456001E0,5.481958389E-3,7.957375050E-2,-8.778572083E-3
7.889496284E0,1.576578617E-2,5.216586590E-2,-3.699779510E-2
7.899506050E0,2.087181807E-2,4.052990675E-2,-8.371067047E-2
7.909515815E0,3.509593010E-2,1.635897160E-2,-8.696746826E-2
7.919525581E0,-1.256301999E-2,-2.579206228E-2,-5.241680145E-2
7.929565864E0,3.457587957E-2,-3.408831358E-2,-3.722190857E-2
7.939575630E0,-4.185676575E-3,-5.615949631E-2,-3.638172150E-2
7.949585395E0,-2.082586288E-4,-5.930626392E-2,6.747245789E-3
7.959625678E0,-2.011650801E-2,-9.176516533E-2,-1.244068146E-2
7.969635444E0,7.727026939E-3,-9.133630991E-2,-4.087734222E-2
7.979675727E0,-2.174019814E-2,-1.008086205E-1,4.025936127E-2
7.989685493E0,6.116271019E-3,-7.756036520E-2,-1.252460480E-2
7.999695259E0,2.436664701E-2,-6.451374292E-2,-7.894515991E-3
8.009735542E0,1.873627305E-2,-1.337909698E-2,-1.725292206E-2
8.019745307E0,2.197358012E-2,3.629803658E-3,-3.106117249E-3
8.029755073E0,1.270264387E-3,4.382562637E-2,6.278419495E-2
8.039795356E0,-4.044473171E-4,4.048746824E-2,6.618976593E-2
8.049805122E0,-1.512891054E-2,5.579715967E-2,2.679824829E-2
8.059845405E0,-5.218362808E-2,5.696439743E-2,-2.087306976E-2
8.069855171E0,2.321302891E-3,5.908358097E-2,-7.232856750E-2
8.079895454E0,1.354596019E-2,5.797600746E-2,-7.109260559E-2
8.089905219E0,1.899078488E-2,2.945852280E-2,-6.023979187E-2
8.099914985E0,-5.175828934E-3,2.081626654E-2,4.026412964E-2
8.109955268E0,3.276199102E-3,-1.666951180E-2,8.235454559E-2
8.119965034E0,-1.713556051E-2,-3.306150436E-3,1.188325882E-1
8.130005317E0,5.360037088E-3,-2.516561747E-2,1.308374405E-1
8.140015083E0,-1.931038499E-2,1.322102547E-2,1.003894806E-1
8.150055366E0,9.418666363E-3,2.686977386E-2,3.694057465E-2
8.160065132E0,4.724174738E-3,4.513895512E-2,2.191638947E-2
8.170074897E0,4.232227802E-4,2.170681953E-3,4.053783417E-2
8.180115180E0,-8.727550507E-3,1.270616055E-2,1.653957367E-2
8.190124946E0,7.984340191E-4,5.188405514E-3,-1.237678528E-2
8.200134712E0,-3.731608391E-2,2.694791555E-2,-5.032634735E-2
8.210174995E0,-3.655132651E-2,-7.520139217E-3,-2.084827423E-2
8.220215278E0,-3.557005525E-2,-1.252561808E-2,-5.364608765E-2
8.230225044E0,-1.088577509E-2,-4.522424936E-2,-6.692504883E-2
8.240234809E0,4.164785147E-3,-2.073401213E-2,-8.794784546E-3
8.250244575E0,1.858538389E-2,-2.533334494E-2,-4.179000854E-3
8.260254341E0,-1.007419825E-2,-6.818407774E-2,4.780006409E-2
8.270294624E0,-4.949152470E-3,-7.853448391E-2,5.146884918E-2
8.280304389E0,1.850885153E-2,-6.544798613E-2,2.231311798E-2
8.290344673E0,4.237174988E-3,-7.936358452E-4,3.114986420E-2
8.300354438E0,-5.416125059E-3,3.058540821E-2,-2.142047882E-2
8.310394721E0,2.749899030E-2,5.052983761E-3,-1.200389862E-2
8.320404487E0,-1.100844145E-2,5.669176579E-2,-3.083610535E-2
8.330414253E0,-6.212681532E-3,3.271102905E-3,-1.599407196E-2
8.340454536E0,7.548868656E-3,7.455468178E-3,-3.483104706E-2
8.350464302E0,1.167884469E-2,2.502858639E-3,-5.322170258E-2
8.360504585E0,2.024626732E-2,1.632040739E-2,-3.414154053E-4
8.370514350E0,1.984742284E-2,2.032381296E-2,1.394271851E-2
8.380554634E0,2.425593138E-2,2.325743437E-2,-6.074905396E-4
8.395569282E0,1.179426908E-3,2.467077971E-2,3.172969818E-2
8.405579048E0,-1.239910722E-2,-1.807808876E-3,-1.129817963E-2
8.415588813E0,2.709597349E-3,2.965161204E-2,-3.986454010E-2
8.425629096E0,-2.039086819E-2,1.829987764E-2,7.913589478E-3
8.435669380E0,-5.098581314E-4,-1.151382923E-2,-1.785278320E-3
8.445679145E0,-9.505331516E-3,6.877660751E-3,2.186203003E-2
8.455688911E0,-8.485198021E-3,1.128593087E-2,7.233619690E-3
8.465698677E0,-2.580085397E-2,1.126897335E-2,1.671218872E-2
8.475738960E0,-4.329311848E-2,-2.665126324E-2,2.138328552E-2
8.485748725E0,-2.303546667E-2,1.236796379E-2,1.659011841E-2
8.495789009E0,-3.170853853E-2,1.316052675E-2,-4.060649872E-2
8.505798774E0,-2.609291673E-2,1.436436176E-2,2.152729034E-2
8.515808540E0,-1.584410667E-2,1.571202278E-2,-2.350807190E-3
8.525848823E0,-5.947023630E-3,-2.561807632E-2,-7.102012634E-3
8.535858589E0,-2.008852363E-2,-2.408874035E-2,4.980087280E-2
8.545868354E0,-2.406924963E-2,-4.275763035E-2,-2.200794220E-2
8.555878120E0,-1.809623837E-2,1.937925816E-2,-7.348155975E-2
8.565918403E0,-1.147088408E-2,6.288290024E-4,-3.928852081E-2
8.575928169E0,-5.819737911E-3,-2.278912067E-2,-6.189346313E-4
8.585968452E0,5.591481924E-2,-2.226865292E-2,4.174518585E-2
8.596008735E0,1.666802168E-2,-4.133212566E-2,8.820915222E-2
8.606018501E0,1.155176759E-2,-1.360714436E-2,3.953361511E-2
8.616028266E0,1.165211201E-2,-5.743503571E-4,6.011009216E-3
8.626068550E0,-6.862223148E-3,-2.000343800E-2,-3.621101379E-3
8.636078315E0,1.727199554E-2,4.681110382E-2,-1.325893402E-2
8.646118598E0,-3.083428741E-2,8.123701811E-2,1.568508148E-2
8.656128364E0,1.130202413E-2,9.218984842E-2,1.080799103E-2
8.666138130E0,-3.220486641E-2,7.435846329E-2,4.836177826E-2
8.681152778E0,-1.264947653E-2,8.950513601E-2,1.224489212E-1
8.691193061E0,-7.167428732E-3,9.348267317E-2,9.674453735E-2
8.701233344E0,-1.562261581E-2,8.781427145E-2,4.312515259E-2
8.711243110E0,4.325777292E-3,4.453301430E-2,-2.812099457E-2
8.726166206E0,1.460024714E-2,3.657615185E-2,-4.073619843E-2
8.736237007E0,5.918294191E-3,-2.727454901E-2,-4.925823212E-2
8.746307807E0,2.041172981E-2,-5.672448874E-2,-6.262969971E-2
8.756317573E0,6.665498018E-3,-8.045649529E-2,-4.697132111E-2
8.766327339E0,4.483705759E-2,-8.499073982E-2,-5.081272125E-2
8.776367622E0,-3.547132015E-3,-8.046257496E-2,6.969451904E-3
8.786377387E0,3.038644791E-4,-8.167177439E-2,-2.267837524E-3
8.796387153E0,3.825545311E-3,-8.342963457E-2,-1.182556152E-2
8.806427436E0,-7.054239511E-3,-7.170766592E-2,-2.169609070E-3
8.816467719E0,5.591303110E-3,-5.660295486E-2,1.214027405E-2
8.826477485E0,-4.618465900E-4,-6.073755026E-2,-2.296447754E-3
8.836517768E0,-2.097731829E-2,1.114666462E-3,-3.100967407E-2
8.846527534E0,-1.280790567E-2,4.396390915E-2,4.995918274E-2
8.856537300E0,-3.377056122E-2,4.323524237E-2,4.894256592E-2
8.866547065E0,-4.451289773E-2,6.587028503E-2,4.794883728E-2
8.876587348E0,-2.029031515E-2,5.968463421E-2,1.855468750E-2
8.886597114E0,-2.788972855E-2,6.794941425E-2,8.890151978E-3
8.896637397E0,-2.011016011E-2,9.167331457E-2,-9.019374847E-2
8.906677680E0,1.281261444E-3,8.303743601E-2,-1.073160172E-1
8.916687446E0,2.710402012E-3,4.785531759E-2,-7.728290558E-2
8.926697212E0,-6.765633821E-3,3.246182203E-2,-9.559631348E-3
8.936706977E0,1.139715314E-2,-1.614439487E-2,3.832626343E-2
8.946716743E0,-1.880201697E-2,1.017630100E-3,7.587051392E-2
8.956757026E0,3.201007843E-3,-4.543203115E-2,4.156208038E-2
8.966797309E0,5.399006605E-2,-2.685761452E-2,7.322311401E-3
8.976807075E0,9.798020124E-3,4.958331585E-3,2.279281616E-3
8.986816841E0,1.877433062E-2,2.621704340E-2,-3.105068207E-2
8.996857124E0,8.811801672E-3,-1.460647583E-2,6.990432739E-3
9.006866889E0,-1.113200188E-2,-4.503047466E-2,-7.234573364E-3
9.016876655E0,2.117305994E-2,-4.644024372E-2,-3.081798553E-2
9.026916938E0,-3.249010444E-2,-5.106210709E-3,-4.488468170E-2
9.036926704E0,-1.848122478E-2,-2.114063501E-2,-6.562232971E-3
9.046936469E0,-4.447013140E-3,-2.255660295E-2,-6.128311157E-3
9.056976753E0,-8.550763130E-3,-3.298246861E-2,-5.719184875E-3
9.066986518E0,-1.240336895E-2,-4.797101021E-2,-1.037597656E-2
9.076996284E0,2.777546644E-3,-4.835128784E-2,-2.443504333E-2
9.087036567E0,2.723824978E-2,-2.537709475E-2,8.594512939E-3
9.097046333E0,8.034795523E-3,-5.920964479E-2,-1.024627686E-2
9.107086616E0,7.873564959E-3,-3.142726421E-2,8.714675903E-3
9.117096382E0,-6.889611483E-3,-2.753746510E-2,1.325988770E-2
9.127136665E0,-2.667903900E-3,9.223043919E-3,8.227348328E-3
9.137146430E0,-1.262816787E-2,4.054707289E-2,-1.669883728E-3
9.147186714E0,-1.317521930E-2,4.766184092E-2,-3.465080261E-2
9.157196479E0,-2.284890413E-2,2.588528395E-2,-4.856109619E-2
9.167236762E0,-3.737777472E-3,5.184459686E-2,-2.424049377E-2
9.177246528E0,1.527723670E-2,-1.278024912E-2,9.266853333E-3
9.192261177E0,6.307065487E-4,3.043544292E-2,2.795886993E-2
9.202270942E0,-2.730458975E-2,2.186661959E-2,2.280521393E-2
9.212311225E0,-2.783328295E-3,8.812427521E-3,6.489849091E-2
9.222351509E0,2.876430750E-3,2.406516671E-2,2.592277527E-2
9.232361274E0,-1.054555178E-2,2.529898286E-2,2.540874481E-2
9.242371040E0,1.366707683E-2,8.064866066E-3,2.036476135E-2
9.252380805E0,-1.433071494E-2,1.138925552E-3,-5.595207214E-2
9.262390571E0,-4.220604897E-3,1.879841089E-2,-7.925033569E-3
9.272430854E0,-1.282256842E-2,4.177907109E-2,1.591396332E-2
9.282440620E0,-3.536707163E-2,-1.075682044E-2,6.553649902E-3
9.292450386E0,1.838338375E-2,-3.879579902E-2,2.517700195E-2
9.302490669E0,2.430900931E-2,4.575818777E-3,-8.233070374E-3
9.312500434E0,3.086745739E-2,-2.809759974E-2,-5.526733398E-2
9.322510200E0,4.179883003E-2,-2.719005942E-2,2.157688141E-2
9.332519966E0,7.534536719E-2,-4.522979259E-2,3.075218201E-2
9.342560249E0,5.490431190E-2,-3.929775953E-2,3.959274292E-2
9.352600532E0,5.943238735E-3,-3.889188170E-2,2.952957153E-2
9.362610298E0,6.562471390E-4,-3.447341919E-2,-9.388732910E-2
9.372650581E0,1.530832052E-2,-2.477324009E-2,-7.353019714E-2
9.382660346E0,-3.628253937E-2,-3.854686022E-2,-8.161354065E-2
9.392700630E0,-2.168315649E-2,-2.303022146E-2,1.459121704E-4
9.402710395E0,-3.639566898E-2,-2.718448639E-3,3.792095184E-2
9.412720161E0,-3.222459555E-2,-7.288068533E-3,4.689693451E-2
9.422760444E0,-5.174624920E-2,5.586326122E-3,8.817577362E-2
9.432770210E0,-4.633432627E-2,4.985782504E-2,1.053028107E-1
9.442779975E0,-2.649369836E-2,6.857362390E-2,7.469558716E-2
9.452820259E0,-2.566307783E-2,7.189670205E-2,4.462623596E-2
9.462830024E0,-3.894534707E-2,7.513442636E-2,5.791854858E-2
9.472870307E0,1.469987631E-2,6.987121701E-2,-1.872253418E-2
9.482880073E0,1.049938798E-2,9.452903271E-2,-5.613040924E-2
9.492889839E0,2.513769269E-2,7.292059064E-2,-5.537605286E-2
9.502930122E0,1.369088888E-3,1.976421475E-2,-1.666927338E-2
9.512939887E0,-8.163392544E-3,2.526569366E-2,-3.056144714E-2
9.522949653E0,-4.147562385E-2,-1.615759730E-2,7.740020752E-3
9.532989936E0,6.332010031E-3,-4.796555638E-2,3.630352020E-2
9.543030219E0,-1.753595471E-2,-7.008332014E-2,1.697444916E-2
9.553039985E0,-8.202582598E-3,-8.665645123E-2,-2.104091644E-2
9.563049751E0,-1.810306311E-2,-6.532102823E-2,-2.558326721E-2
9.573059516E0,-1.826012135E-2,-8.701261878E-2,-5.328464508E-2
9.583099800E0,-3.266260028E-2,-4.261139035E-2,-5.136489868E-3
9.593140083E0,-6.645917892E-6,-6.035214663E-2,-3.305721283E-2
9.603149848E0,1.723811030E-2,-3.548884392E-2,3.844738007E-2
9.613159614E0,1.489335299E-2,-7.202565670E-3,6.114196777E-2
9.623199897E0,-2.540466189E-2,-2.311497927E-2,4.582214355E-2
9.633301216E0,-1.127448678E-2,2.216839790E-2,-1.673316956E-2
9.643310981E0,-4.945158958E-3,2.890810370E-2,-5.405902863E-2
9.658173042E0,2.158170938E-2,5.092239380E-2,-9.987068176E-2
9.668274360E0,3.409832716E-3,5.613198876E-2,-8.392333984E-2
9.678314643E0,-1.339048147E-3,2.430158854E-2,-6.725311279E-3
9.688354927E0,7.270485163E-3,6.579071283E-3,5.034732819E-2
9.698364692E0,2.022060752E-2,3.147453070E-3,7.763385773E-2
9.708374458E0,4.028379917E-3,-1.869976521E-3,7.156372070E-2
9.718414741E0,-2.118915319E-3,3.490933776E-2,6.079578400E-2
9.728424507E0,1.753687859E-3,4.199478030E-2,2.649974823E-2
9.738434272E0,-3.381162882E-3,5.865702033E-2,-2.127552032E-2
9.748474555E0,5.683660507E-3,4.690399766E-2,2.383232117E-3
9.758484321E0,5.135923624E-3,4.040145874E-2,-2.122783661E-2
9.768524604E0,-5.151063204E-3,-3.561049700E-3,-4.947757721E-2
9.778534370E0,-2.478802204E-2,1.928246021E-2,1.752662659E-2
9.788574653E0,-1.996850967E-2,-1.455998421E-2,-3.947353363E-2
9.798584419E0,-5.226224661E-3,3.950029612E-3,-1.053619385E-2
9.808594184E0,-4.249012470E-2,-1.123872399E-2,-5.291938782E-3
9.818634468E0,-1.730403304E-2,-1.610502601E-2,-3.814601898E-2
9.833618598E0,-1.595851779E-2,-3.026193380E-2,-1.397705078E-2
9.843628364E0,-2.012425661E-2,-4.864376783E-2,5.180358887E-3
9.853699165E0,3.878921270E-3,-7.630911469E-2,3.342247009E-2
9.863708930E0,-1.055350900E-2,-5.173808336E-2,-9.633064270E-3
9.873718696E0,-5.701810122E-3,-4.643383622E-2,-9.599685669E-3
9.883728462E0,1.789993048E-2,-3.176629543E-2,-1.895904541E-2
9.893768745E0,-4.399088025E-2,-4.076761007E-2,-1.836585999E-2
9.903778511E0,-1.039049029E-2,-3.565171361E-2,-1.359748840E-2
9.913788276E0,-1.060232520E-2,-2.112764120E-2,1.490116119E-2
9.923828559E0,-2.061310410E-2,1.661539078E-2,5.039215088E-3
9.933838325E0,-1.612421870E-2,3.005868196E-2,-3.320121765E-2
9.943878608E0,3.101348877E-3,3.384867311E-2,9.900093079E-3
9.953888374E0,-2.560696006E-2,5.157315731E-2,3.367137909E-2
9.963898139E0,3.352731466E-3,3.566777706E-2,-2.370548248E-2
9.973907905E0,1.844203472E-2,4.809764028E-2,9.414672852E-3
9.983948188E0,2.818307281E-2,1.787951589E-2,5.186367035E-2
9.993957954E0,1.439350843E-2,2.629455924E-2,1.319313049E-2
1.000396772E1,5.761834979E-2,2.991914749E-2,4.624080658E-2
1.001400800E1,4.847949743E-2,6.241104007E-2,6.423950195E-2
1.002401777E1,1.614588499E-2,3.388175368E-2,1.893997192E-3
1.003405805E1,-1.166990399E-2,8.694800735E-2,2.090358734E-2
1.004406782E1,-5.492031574E-3,4.537099600E-2,-1.222324371E-2
1.005410810E1,1.883977652E-2,7.169649005E-2,2.290725708E-3
1.006411787E1,-9.664714336E-3,4.636818171E-2,-1.161193848E-2
1.007412763E1,-1.431271434E-2,4.128739238E-2,3.023147583E-3
1.008416792E1,-4.678112268E-2,-2.014204860E-2,-1.088428497E-2
1.009417768E1,-2.220171690E-2,-3.807851672E-2,2.716255188E-2
1.010421796E1,-4.042521119E-2,-4.175239801E-2,2.209758759E-2
1.011422773E1,-3.435629606E-2,-6.939148903E-2,4.119491577E-2
1.012423750E1,-3.721681237E-2,-4.978042841E-2,-6.312847137E-2
1.013424726E1,-3.057205677E-2,-6.310272217E-2,-2.409553528E-2
1.014428754E1,-4.833462834E-2,-1.095021367E-1,-1.868057251E-2
1.015432783E1,-2.420690656E-2,-7.937866449E-2,8.058547974E-4
1.016433759E1,-5.340853333E-2,-5.502033234E-2,-2.273845673E-2
1.017434736E1,-3.397947550E-2,-8.748972416E-2,-1.166000366E-1
1.018438764E1,-5.238348246E-2,-4.800611734E-2,-1.000823975E-1
1.019439741E1,-1.844882965E-2,-2.317976952E-2,-5.543899536E-2
1.020440717E1,-2.798002958E-2,-2.199178934E-2,-3.042602539E-2
1.021444746E1,8.900433779E-3,3.083205223E-2,3.188610077E-2
1.022445722E1,-1.704135537E-2,2.457815409E-2,8.330249786E-2
1.023449750E1,-1.346620917E-2,8.762323856E-2,1.339139938E-1
1.024450727E1,3.326192498E-2,1.285833716E-1,1.506128311E-1
1.025451704E1,-3.298264742E-2,1.439796686E-1,1.385078430E-1
1.026455732E1,3.962570429E-2,1.018084884E-1,7.000160217E-2
1.027456709E1,5.513706803E-2,1.366142035E-1,2.607345581E-3
1.028460737E1,5.610314012E-2,1.254517436E-1,-1.836776733E-3
1.029461713E1,2.819630504E-2,1.117486358E-1,-1.103773117E-1
1.030462690E1,6.668499112E-2,4.839545488E-2,-1.223173141E-1
1.031466718E1,5.226391554E-2,4.005718231E-2,-1.011400223E-1
1.032467695E1,4.165351391E-2,1.441186666E-2,-6.100749969E-2
1.033468671E1,-2.203255892E-3,-4.338341951E-2,-1.258659363E-2
1.034472700E1,1.554182172E-2,-6.307536364E-2,-1.233577728E-2
1.035473676E1,-1.861089468E-2,-1.355831623E-1,2.134418488E-2
1.036477705E1,9.339094162E-3,-1.137428284E-1,2.579498291E-2
1.037478681E1,-2.407062054E-2,-1.074631810E-1,-1.228523254E-2
1.038479658E1,-1.426291466E-2,-6.909060478E-2,-2.138900757E-2
1.039483686E1,-1.384267211E-2,-6.948029995E-2,1.247787476E-2
1.040484663E1,2.878734469E-2,-1.776999235E-2,-5.363750458E-2
1.041485639E1,3.721517324E-2,7.863640785E-4,3.739929199E-2
1.042489668E1,-1.669290662E-2,-4.876136780E-3,5.105113983E-2
1.043490644E1,-2.691656351E-2,8.626878262E-3,3.143119812E-2
1.044494672E1,-2.124500275E-2,-1.169514656E-2,2.185344696E-2
1.045495649E1,-5.722308159E-2,6.353378296E-3,-4.913902283E-2
1.046496626E1,-2.563416958E-3,1.583933830E-2,-9.515190125E-2
1.047500654E1,-1.516854763E-2,4.566794634E-2,-5.527782440E-2
1.048501630E1,-2.440103889E-2,3.362137079E-2,-5.393505096E-2
1.049502607E1,-5.378872156E-2,1.766502857E-2,-2.921867371E-2
1.050506635E1,-4.072034359E-2,2.081733942E-2,2.368927002E-2
1.051507612E1,-3.296154737E-2,1.345652342E-2,6.619167328E-2
1.052511640E1,-3.907319903E-2,5.131483078E-3,6.532669067E-2
1.053512617E1,-3.508731723E-2,3.364986181E-2,1.691436768E-2
1.054516645E1,-1.554620266E-2,2.790147066E-2,2.840995789E-3
1.055517622E1,-7.311701775E-4,3.618592024E-2,2.810478210E-3
1.056518598E1,9.155780077E-3,1.081639528E-2,1.252079010E-2
1.057519575E1,1.374450326E-2,3.346598148E-2,3.302574158E-3
1.058523603E1,2.736377716E-2,8.851170540E-3,-2.466106415E-2
1.059524580E1,-2.197086811E-3,2.226728201E-2,-4.314422607E-2
1.060528608E1,2.544721961E-2,2.187025547E-2,-4.221630096E-2
1.061529584E1,1.114189625E-3,-6.845355034E-3,-4.122352600E-2
1.062530561E1,-8.258521557E-3,-3.486871719E-2,1.644897461E-2
1.063534589E1,2.074438334E-2,4.257917404E-3,-4.905891418E-2
1.064535566E1,-2.899765968E-3,-2.808874846E-2,-3.837013245E-2
1.065539594E1,6.563544273E-3,1.348257065E-3,-9.156227112E-3
1.066540571E1,1.564049721E-2,-2.165436745E-2,-1.789283752E-2
1.067541547E1,-8.800745010E-3,-4.444247484E-2,1.681327820E-3
1.068545576E1,4.849463701E-3,3.692865372E-3,-2.991676331E-3
1.069546552E1,1.385015249E-2,-1.045942307E-2,5.865669250E-2
1.070547529E1,9.072989225E-3,-1.068723202E-2,-8.296012878E-3
1.071551557E1,1.430529356E-2,7.746815681E-3,3.459358215E-2
1.072552534E1,1.040849090E-2,1.156109571E-2,-1.300239563E-2
1.073553510E1,2.566906810E-2,1.047360897E-2,2.555084229E-2
1.074557539E1,-1.794368029E-3,2.846240997E-2,1.140594482E-2
1.075558515E1,1.355108619E-2,3.183358908E-2,-1.683044434E-2
1.076562543E1,3.874003887E-4,5.904662609E-2,-1.130199432E-2
1.077563520E1,-8.508205414E-3,6.213140488E-2,3.513336182E-3
1.078564497E1,-1.278898120E-2,3.699690104E-2,-1.024818420E-2
1.079568525E1,-3.801494837E-3,3.119200468E-2,-5.219364166E-2
1.080569501E1,-2.190470695E-5,5.948096514E-2,-8.880138397E-2
1.081570478E1,1.782071590E-2,2.586805820E-2,-5.861473083E-2
1.082574506E1,1.169279218E-2,2.595090866E-2,-3.377056122E-2
1.083575483E1,-4.603895545E-2,3.080677986E-2,7.110118866E-2
1.084579511E1,1.622030139E-2,5.843073130E-2,2.777385712E-2
1.085580488E1,-2.550026774E-2,-2.742409706E-4,-7.019042969E-4
1.086584516E1,-1.909247041E-2,-2.048158646E-2,-1.469707489E-2
1.087585493E1,9.790003300E-3,4.524147511E-2,-6.624412537E-2
1.088586469E1,4.697918892E-2,-2.463996410E-3,-2.657032013E-2
1.089587446E1,2.601069212E-2,-6.932854652E-3,-3.977394104E-2
1.090591474E1,1.069244742E-2,-6.487607956E-3,-8.138275146E-2
1.091592451E1,2.000764012E-2,-2.954721451E-2,-5.565166473E-2
1.092593427E1,-3.735452890E-3,-1.944875717E-2,-3.505992889E-2
1.093597456E1,-2.208760381E-2,-4.899859428E-3,3.341674805E-3
1.094601484E1,-1.705598831E-2,-2.060002089E-2,6.983852386E-2
1.095602460E1,-3.253579140E-3,1.013875008E-2,1.067285538E-1
1.096606489E1,-4.208257794E-2,5.284130573E-2,1.191673279E-1
1.097607465E1,-6.620368361E-2,6.930392981E-2,1.077871323E-1
1.098608442E1,-3.719800711E-2,6.563538313E-2,9.597396851E-2
1.099612470E1,-2.670887113E-2,7.529044151E-2,4.230785370E-2
1.100613447E1,-6.501972675E-3,8.492422104E-2,-2.009773254E-2
1.101614423E1,-5.242228508E-3,8.124178648E-2,-7.222080231E-2
1.102618452E1,2.002358437E-2,1.076203585E-1,-5.675220490E-2
1.103619428E1,6.611913443E-3,6.377482414E-2,-6.055450439E-2
1.104626508E1,2.199447155E-2,8.792787790E-2,-1.194381714E-2
1.105633588E1,1.741591096E-2,3.212112188E-2,-2.085685730E-2
1.107125898E1,-1.098638773E-2,-3.078508377E-2,7.445335388E-3
1.108129926E1,2.089530230E-3,-5.151599646E-2,7.507324219E-3
1.109133955E1,-8.593112230E-3,-6.264060736E-2,-1.154518127E-2
1.110134931E1,9.103745222E-3,-5.432009697E-2,-1.555252075E-2
1.111138959E1,-2.947336435E-2,-6.468319893E-2,-1.489257812E-2
1.112139936E1,1.811259985E-2,-5.139428377E-2,-4.311084747E-2
1.113140913E1,2.740153670E-2,-4.274803400E-2,-1.849365234E-2
1.114141889E1,-2.520102262E-2,-4.303473234E-2,3.416442871E-2
1.115145918E1,4.513034225E-2,-1.470130682E-2,4.368591309E-2
1.116149946E1,-1.834124327E-2,-1.258611679E-3,4.284954071E-2
1.117150922E1,-1.451039314E-2,-1.232063770E-2,-9.713172913E-3
1.118151899E1,-2.405884862E-2,5.751621723E-2,-2.840328217E-2
1.119155927E1,-6.100296974E-2,3.216272593E-2,-5.117321014E-2
1.120159956E1,2.120819688E-2,3.178322315E-2,-1.159725189E-1
1.121160932E1,1.649981737E-2,2.813857794E-2,-4.688644409E-2
1.122161909E1,6.629943848E-3,2.954459190E-2,-4.063034058E-2
1.123162885E1,-1.796931028E-2,2.640253305E-2,4.089927673E-2
1.124166914E1,-2.361971140E-2,7.976055145E-3,4.545879364E-2
1.125167890E1,-1.990970969E-2,-2.084952593E-2,2.118301392E-2
1.126168867E1,-1.590314507E-2,-2.676570415E-2,3.050136566E-2
1.127172895E1,7.469892502E-3,-9.923815727E-3,5.902385712E-2
1.128173872E1,-2.625682950E-2,5.903780460E-3,5.374050140E-2
1.129174848E1,-1.171571016E-2,3.092813492E-2,3.419399261E-2
1.130178876E1,2.307504416E-3,2.702665329E-2,-2.284717560E-2
1.131179853E1,-1.255798340E-2,8.030849695E-2,-6.482410431E-2
1.132183881E1,-1.380550861E-2,7.178837061E-2,-3.986644745E-2
1.133184858E1,-4.335090518E-2,8.734607697E-2,-6.258296967E-2
1.134188886E1,-1.514551044E-2,6.037330627E-2,-5.194187164E-2
1.135189863E1,3.536880016E-3,5.162447691E-2,-2.703285217E-2
1.136193891E1,1.746812463E-2,3.764283657E-2,1.610279083E-2
1.137194868E1,2.658066154E-2,2.809196711E-2,-2.855300903E-3
1.138195844E1,3.587317467E-2,2.241128683E-2,1.699447632E-3
1.139196821E1,6.369739771E-3,2.108311653E-2,2.965259552E-2
1.140200849E1,1.497149467E-2,3.322476149E-2,3.858184814E-2
1.141201826E1,4.507690668E-3,1.163655519E-2,7.084178925E-2
1.142205854E1,3.972589970E-3,1.819467545E-2,6.930828094E-2
1.143206831E1,-1.051467657E-2,-1.294153929E-2,2.527809143E-2
1.144207807E1,1.361200213E-2,-2.007544041E-2,1.982784271E-2
1.145211835E1,4.252260923E-2,-2.124351263E-2,-1.393795013E-2
1.146212812E1,1.878064871E-2,-3.572243452E-2,1.008415222E-2
1.147216840E1,4.821181297E-3,-1.151996851E-2,-1.825428009E-2
1.148217817E1,-4.502862692E-3,-5.295878649E-2,-3.218746185E-2
1.149221845E1,-4.373550415E-3,-3.649383783E-2,3.482437134E-2
1.150222822E1,-1.414510608E-2,-3.412008286E-2,2.486801147E-2
1.151223798E1,-1.911973953E-2,-3.103613853E-2,-2.278900146E-2
1.152227827E1,-1.447838545E-2,-3.249919415E-2,-1.746177673E-2
1.153228803E1,1.879164577E-2,-2.413916588E-2,-8.764171600E-2
1.154229780E1,2.341812849E-2,-2.971971035E-2,-4.353332520E-2
1.155233808E1,-1.985821128E-2,-6.970345974E-3,-9.236335754E-3
1.156234785E1,-9.389817715E-4,-2.296632528E-2,4.807376862E-2
1.157238813E1,-4.155933857E-4,3.086507320E-3,-4.247283936E-2
1.158239790E1,-4.212021828E-3,-2.364701033E-2,3.874015808E-2
1.159243818E1,6.311577559E-2,-7.622122765E-3,5.941390991E-4
1.160244794E1,3.401330113E-2,8.000731468E-3,-8.790016174E-3
1.161245771E1,2.382761240E-2,-9.616017342E-3,-3.236484528E-2
1.162246748E1,2.372157574E-2,-7.710635662E-3,-1.122722626E-1
1.163247724E1,1.943120360E-2,9.289085865E-3,-5.808258057E-2
1.164248701E1,-3.250896931E-2,4.140394926E-2,-2.841663361E-2
1.165252729E1,-5.043807626E-2,6.747066975E-3,3.855991364E-2
1.166253706E1,-1.614373922E-2,6.523132324E-4,7.116508484E-2
1.167254682E1,-4.421108961E-2,3.609347343E-2,1.502981186E-1
1.168258710E1,-5.301389098E-2,4.520392418E-2,1.619796753E-1
1.169259687E1,-6.619051099E-2,4.813188314E-2,1.688137054E-1
1.170260664E1,-3.615811467E-2,7.891207933E-2,1.136837006E-1
1.171264692E1,-3.469845653E-2,9.029960632E-2,2.690601349E-2
1.172265668E1,-2.291798592E-5,8.857452869E-2,-2.545642853E-2
1.173266645E1,-8.370399475E-3,7.909560204E-2,-1.149549484E-1
1.174270673E1,5.876466632E-2,7.664573193E-2,-1.366262436E-1
1.175271650E1,1.522719860E-3,2.427089214E-2,-1.622114182E-1
1.176272626E1,-3.773152828E-3,7.692933083E-3,-8.780479431E-2
1.177276655E1,-2.826452255E-4,-4.155164957E-2,-6.702232361E-2
1.178277631E1,-1.914948225E-3,-5.747818947E-2,-3.262329102E-2
1.179281660E1,-1.776075363E-2,-7.445967197E-2,3.942871094E-2
1.180282636E1,-1.388189197E-2,-1.024570465E-1,3.449249268E-2
1.181283613E1,-1.403275132E-2,-1.079678535E-1,-8.150100708E-3
1.182284589E1,4.710793495E-3,-1.048393250E-1,-2.207756042E-2
1.183288618E1,4.990547895E-3,-7.376170158E-2,-1.199245453E-2
1.184292646E1,5.176663399E-5,-8.140575886E-2,-6.838989258E-2
1.185293622E1,4.697504640E-2,-1.286101341E-2,-1.989269257E-2
1.186294599E1,4.480820894E-2,2.454400063E-3,1.349639893E-2
1.187295576E1,8.747398853E-3,2.714419365E-2,7.012748718E-2
1.188299604E1,-2.143833041E-2,5.067825317E-2,6.912612915E-2
1.189300581E1,7.154911757E-3,8.305239677E-2,1.597785950E-2
1.190304609E1,7.714539766E-3,5.830550194E-2,-3.157806396E-2
1.191305585E1,3.251576424E-2,4.948043823E-2,-6.370735168E-2
1.192309614E1,1.469650865E-2,5.188930035E-2,-2.922153473E-2
1.193310590E1,-8.394062519E-3,6.937766075E-2,4.293251038E-2
1.194311567E1,-2.754423022E-2,4.935419559E-2,8.506298065E-2
1.195315595E1,-3.760954738E-2,5.740272999E-2,8.427715302E-2
1.196316572E1,-9.396374226E-3,2.222120762E-2,4.998493195E-2
1.197323652E1,-3.377801180E-2,1.602900028E-2,6.970405579E-3
1.198330732E1,-4.884392023E-3,2.943265438E-2,2.125072479E-2
1.199816938E1,1.470729709E-2,1.624321938E-2,2.611827850E-2
1.200824018E1,-2.767720819E-2,-8.124351501E-3,2.625942230E-2
1.201828046E1,-3.346860409E-3,2.006685734E-2,2.643871307E-2
1.202829023E1,-4.109272361E-2,-4.058122635E-3,-1.141262054E-2
1.203833051E1,-5.546492338E-2,1.286029816E-3,-5.799388885E-2
1.204834028E1,-4.600337148E-2,-2.178096771E-2,-5.137729645E-2
1.205838056E1,-3.658562899E-2,-2.010774612E-2,-8.290863037E-2
1.206839033E1,-1.760596037E-2,-1.333808899E-2,-7.116127014E-2
1.207840009E1,1.544275880E-2,-2.060031891E-2,-4.071903229E-2
1.208844038E1,5.497694016E-3,-2.329945564E-2,-2.003574371E-2
1.209845014E1,1.960834861E-2,-3.618204594E-2,9.080886841E-3
1.210845991E1,-9.598076344E-3,-2.673447132E-2,8.022212982E-2
1.211850019E1,6.110122800E-2,-1.844298840E-2,4.619789124E-2
1.212850996E1,2.670496702E-2,-1.663768291E-2,3.620815277E-2
1.213851972E1,4.498139024E-2,3.713059425E-2,6.868839264E-2
1.214856000E1,4.470467567E-2,1.899600029E-2,2.517700195E-2
1.215856977E1,3.070881963E-2,1.157855988E-2,-3.347396851E-3
1.216861005E1,1.191851497E-2,5.363702774E-3,-5.005168915E-2
1.217865034E1,-6.380975246E-3,1.978909969E-2,-6.757164001E-2
1.219366499E1,-6.192624569E-3,4.813313484E-3,-3.636360168E-2
1.220367475E1,-4.891142249E-2,5.412471294E-2,1.238155365E-2
1.221371503E1,-1.010566950E-3,2.156186104E-2,-2.514362335E-2
1.222372480E1,-4.887098074E-2,2.532601357E-3,3.719043732E-2
1.223373456E1,-6.227433681E-3,4.910504818E-2,-5.185127258E-3
1.224377485E1,-4.908847809E-2,9.214401245E-3,9.801864624E-3
1.225378461E1,-1.051899791E-2,2.147078514E-2,1.003932953E-2
1.226382490E1,-1.473358274E-2,1.894581318E-2,1.502037048E-2
1.227383466E1,3.335213661E-2,1.081681252E-2,1.960563660E-2
1.228384443E1,-3.205654025E-2,7.296323776E-3,-7.536792755E-2
1.229385419E1,7.584154606E-3,-3.897309303E-2,-1.256752014E-2
1.230389448E1,-1.266866922E-3,-2.316856384E-2,-1.191902161E-2
1.231390424E1,5.582702160E-2,-5.959248543E-2,-9.668350220E-2
1.232394453E1,3.600239754E-2,-2.407276630E-2,-3.341960907E-2
1.233395429E1,-1.203364134E-2,-1.795899868E-2,-8.501529694E-2
1.234396406E1,2.162405849E-2,2.286314964E-3,-1.212244034E-1
1.235400434E1,1.739072800E-2,-6.188392639E-3,-8.146476746E-2
1.236401411E1,-3.410440683E-2,-5.586981773E-3,4.752349854E-2
1.237405439E1,-2.792826295E-2,-1.506006718E-2,1.510086060E-1
1.238406416E1,-1.726189256E-2,4.054105282E-2,1.768636703E-1
1.239407392E1,-4.887062311E-2,4.195058346E-2,1.781826019E-1
1.240411420E1,-7.036450505E-2,5.194127560E-2,1.466541290E-1
1.241412397E1,-7.684564590E-2,9.966862202E-2,1.248703003E-1
1.242413374E1,-8.234959841E-2,8.649301529E-2,5.635738373E-2
1.243417402E1,2.551168203E-3,1.035370827E-1,-8.204746246E-2
1.244421430E1,-3.318428993E-3,9.433758259E-2,-1.467628479E-1
1.245422407E1,2.788186073E-2,9.755575657E-2,-1.861162186E-1
1.246423383E1,1.945620775E-2,5.612266064E-2,-1.961040497E-1
1.247424360E1,1.187324524E-4,2.167737484E-2,-8.771324158E-2
1.248428388E1,-2.143919468E-3,-2.621090412E-2,-2.838611603E-2
1.249429365E1,9.457826614E-3,-7.502484322E-2,-8.069992065E-3
1.250433393E1,2.574691176E-2,-1.110519171E-1,1.636791229E-2
1.251434370E1,-1.033526659E-2,-1.254200935E-1,4.470539093E-2
1.252435346E1,-5.913281441E-2,-1.369098425E-1,-2.676200867E-2
1.253439375E1,-5.936777592E-2,-1.258897781E-1,-1.257133484E-2
1.254443403E1,-1.655921340E-2,-9.720540047E-2,-5.045700073E-2
1.255444379E1,-7.177144289E-3,-4.544961452E-2,-6.379222870E-2
1.256445356E1,1.868098974E-3,-2.243149281E-2,-2.071952820E-2
1.257449384E1,2.926144004E-2,-1.862537861E-2,-1.087284088E-2
1.258450361E1,1.271495223E-2,-5.813837051E-4,3.637695312E-2
1.259451337E1,1.522591710E-2,2.579092979E-2,2.603340149E-2
1.260452314E1,-4.637241364E-5,2.247571945E-2,-3.618812561E-2
1.261456342E1,1.941683888E-2,5.272006989E-2,-5.945873260E-2
1.262457319E1,5.911588669E-4,4.523825645E-2,-9.196662903E-2
1.263461347E1,2.977764606E-2,6.735289097E-2,-8.101177216E-2
1.264462324E1,2.019625902E-2,4.254853725E-2,5.517005920E-3
1.265463300E1,1.920020580E-2,3.654289246E-2,7.611370087E-2
1.266467329E1,-2.071669698E-2,3.933823109E-2,1.170434952E-1
1.267468305E1,-3.220435977E-2,5.035328865E-2,1.475830078E-1
1.268469282E1,-2.390420437E-2,6.000030041E-2,1.159877777E-1
1.269473310E1,-1.018702984E-2,5.552506447E-2,8.055496216E-2
1.270474287E1,-2.885758877E-2,5.634319782E-2,5.527019501E-2
1.271475263E1,5.267679691E-3,5.841791630E-2,-1.667118073E-2
1.272479292E1,1.094728708E-2,5.154728889E-3,-3.545284271E-2
1.273480268E1,2.030742168E-2,5.970835686E-3,-1.114654541E-2
1.274481245E1,4.895120859E-3,-2.062833309E-2,-2.001571655E-2
1.275485273E1,2.747508883E-2,-5.196487904E-2,4.108428955E-3
1.276486250E1,5.937027931E-2,-6.466519833E-2,6.072044373E-2
1.277490278E1,8.228641748E-2,-7.300686836E-2,-5.847835541E-2
1.278491254E1,6.281587481E-2,-3.429055214E-2,-4.822826385E-2
1.279492231E1,7.744002342E-2,-1.481389999E-2,-5.203056335E-2
1.280496259E1,6.855323911E-2,-3.324627876E-2,-6.995010376E-2
1.281497236E1,5.971029401E-2,-1.839840412E-2,-2.584457397E-3
1.282501264E1,3.123426437E-2,-2.203714848E-2,-3.084373474E-2
1.283502241E1,3.229409456E-3,-1.586699486E-2,-6.318187714E-2
1.284506269E1,-3.440305591E-2,-2.981424332E-4,-6.664180756E-2
1.285507246E1,-6.229138374E-2,5.746364594E-3,-7.025337219E-2
1.286511274E1,-6.148010492E-2,-1.726496220E-2,-6.441688538E-2
1.287512250E1,-9.412172437E-2,1.123321056E-2,4.493236542E-2
1.288513227E1,-7.867610455E-2,-2.890920639E-2,1.056203842E-1
1.289514204E1,-3.987848759E-2,8.406639099E-4,7.050609589E-2
1.290518232E1,-6.767973304E-2,-1.812982559E-2,3.994274139E-2
1.291519209E1,-1.044574380E-1,5.286574364E-2,6.677246094E-2
1.292523237E1,-1.074064970E-1,1.476132870E-2,-1.061344147E-2
1.293524213E1,-9.581613541E-2,3.962516785E-2,-2.986717224E-2
1.294525190E1,-9.332835674E-2,6.166982651E-2,-4.354763031E-2
1.295529218E1,-8.196052909E-2,5.205607414E-2,1.889896393E-2
1.296530195E1,-7.552507520E-2,5.332946777E-2,3.274154663E-2
1.297531171E1,-1.248607039E-2,6.454169750E-2,-1.958465576E-2
1.298535200E1,-7.073491812E-3,3.335154057E-2,1.884365082E-2
1.299536176E1,-2.161264420E-3,6.452059746E-2,8.507919312E-2
1.300537153E1,5.892249942E-2,3.818893433E-2,6.531047821E-2
1.301541181E1,7.614880800E-2,2.648532391E-2,4.083824158E-2
1.302542158E1,1.698800921E-2,5.031228065E-3,-2.133464813E-2
1.303546186E1,5.967563391E-2,8.045434952E-3,-1.057138443E-1
1.304547163E1,6.024393439E-2,-3.990519047E-2,-1.220712662E-1
1.305548139E1,4.705443978E-2,-1.493549347E-2,-4.842567444E-2
1.306552168E1,3.406617045E-2,-6.614017487E-2,2.399921417E-2
1.307553144E1,4.456815124E-2,-5.587589741E-2,1.141347885E-1
1.308557172E1,4.485374689E-2,-6.660795212E-2,1.124897003E-1
1.309558149E1,3.494793177E-2,-5.550551414E-2,1.109466553E-1
1.310559126E1,3.931868076E-2,-3.155136108E-2,4.865646362E-3
1.311563154E1,3.410813212E-2,1.174569130E-3,-5.236530304E-2
1.312564130E1,5.298420787E-2,2.876138687E-2,-8.962154388E-2
1.313565107E1,8.644777536E-2,4.292058945E-2,-1.259498596E-1
1.314569135E1,5.862063169E-2,6.778836250E-2,-1.188831329E-1
1.315570112E1,3.561931849E-2,8.932256699E-2,-9.722423553E-2
1.316571088E1,2.720114589E-2,9.248328209E-2,-5.711746216E-2
1.317575117E1,-7.170099020E-2,7.729208469E-2,2.953052521E-2
1.318576093E1,-5.138385296E-2,3.323042393E-2,4.416561127E-2
1.319577070E1,-5.562299490E-2,-1.457810402E-3,4.386425018E-2
1.320581098E1,-4.149091244E-2,-1.308798790E-2,2.915954590E-2
1.321582075E1,-8.916115761E-2,-5.347466469E-2,6.211853027E-2
1.322586103E1,-6.408143044E-2,-4.649424553E-2,-9.539604187E-3
1.323587080E1,-6.239885092E-2,-3.986608982E-2,-9.303092957E-3
1.324591108E1,-9.864330292E-2,-2.383005619E-2,5.032539368E-3
1.325592084E1,-5.374389887E-2,-2.181792259E-2,-8.777618408E-3
1.326593061E1,-4.773998260E-2,-1.488709450E-2,-3.196144104E-2
1.327594038E1,-9.884715080E-3,6.267070770E-3,6.353378296E-3
1.328598066E1,-3.038549423E-2,2.665042877E-2,4.434204102E-2
1.329602094E1,-4.106318951E-2,5.039381981E-2,9.756088257E-4
1.330603071E1,-3.584206104E-3,4.489338398E-2,8.897781372E-4
1.331604047E1,-4.001557827E-3,5.842280388E-2,-1.320648193E-2
1.332605024E1,1.958411932E-2,4.399347305E-2,-3.164291382E-3
1.333609052E1,3.357416391E-2,-2.586591244E-2,-5.493736267E-2
1.334613081E1,5.608057976E-2,5.589127541E-3,1.740169525E-2
1.335614057E1,5.874508619E-2,-5.274546146E-2,1.262855530E-2
1.336618085E1,3.229382634E-2,-4.451990128E-2,2.704811096E-2
1.337619062E1,4.417309165E-2,-2.756345272E-2,7.773399353E-3
1.338620039E1,4.679080844E-2,-6.859409809E-2,1.230430603E-2
1.339630170E1,2.620586753E-2,1.300311089E-2,1.207160950E-2
1.341125532E1,2.114921808E-3,1.625537872E-2,-3.524398804E-2
1.342126508E1,1.146659255E-2,1.913380623E-2,2.184963226E-2
1.343133588E1,-1.257133484E-2,-1.241338253E-2,-2.373695374E-3
1.344134565E1,6.501555443E-3,3.217530251E-2,4.424381256E-2
1.345135542E1,-4.129624367E-2,1.921522617E-2,3.868770599E-2
1.346139570E1,-4.539585114E-2,1.141273975E-2,-2.346038818E-2
1.347140546E1,-1.581910253E-2,8.835434914E-3,-3.792667389E-2
1.348144575E1,-2.459296584E-2,3.134727478E-3,-2.745723724E-2
1.349145551E1,-9.144127369E-3,-2.521502972E-2,1.576709747E-2
1.350643964E1,-2.237081528E-2,5.856156349E-3,1.103687286E-2
1.351647993E1,-7.786005735E-3,2.503633499E-3,3.438949585E-2
1.352648969E1,-3.667199612E-2,-4.359853268E-2,4.333877563E-2
1.353649946E1,-5.105635524E-2,5.367994308E-4,-4.691123962E-3
1.354653974E1,-8.455142379E-2,-7.801175117E-3,-1.412010193E-2
1.355654951E1,-7.042679191E-2,-2.571487427E-2,6.246566772E-4
1.356655927E1,-2.319127321E-2,-6.381273270E-4,2.416229248E-2
1.357659956E1,-3.776597977E-2,-1.419401169E-2,-1.366329193E-2
1.358663984E1,-4.718750715E-3,-2.801346779E-2,1.500988007E-2
1.359664960E1,-5.114078522E-3,-8.725285530E-3,3.854560852E-2
1.360665937E1,-2.416670322E-2,-2.292609215E-2,6.641101837E-2
1.361669965E1,-9.890377522E-3,-3.219509125E-2,4.148769379E-2
1.362670942E1,2.815306187E-2,1.968860626E-3,3.010749817E-3
1.363671918E1,-1.469331980E-2,-1.123023033E-2,-6.820392609E-2
1.364672895E1,-2.378788590E-2,2.932524681E-2,-2.898216248E-2
1.365676923E1,3.298097849E-2,4.026174545E-3,-2.297592163E-2
1.366677900E1,4.140079021E-2,5.042254925E-2,-2.672100067E-2
1.367681928E1,5.488187075E-2,3.426086903E-2,-1.643562317E-2
1.368685956E1,4.949927330E-2,4.584610462E-2,-1.082515717E-2
1.369686933E1,6.353411078E-2,-1.439380646E-2,3.197956085E-2
1.370687910E1,1.107781827E-1,9.735822678E-4,-6.034851074E-3
1.371688886E1,1.184729040E-1,5.895853043E-3,3.234863281E-3
1.372692915E1,6.954768300E-2,1.004707813E-2,1.228618622E-2
1.373693891E1,2.174857259E-2,-9.990453720E-3,-4.956054688E-2
1.374694868E1,-6.271928549E-3,-5.525827408E-3,-7.199954987E-2
1.375698896E1,4.033237696E-3,9.485363960E-3,-2.359962463E-2
1.376699872E1,-5.728387833E-2,-4.025101662E-3,1.000213623E-1
1.377700849E1,-6.096777320E-2,-2.675628662E-2,1.127004623E-1
1.378704877E1,-6.939056516E-2,2.956092358E-2,2.006845474E-1
1.379708906E1,-6.314906478E-2,6.020736694E-2,1.736049652E-1
1.380709882E1,-1.036136150E-1,8.512258530E-2,1.089611053E-1
1.381710859E1,-5.808308721E-2,3.433728218E-2,6.426239014E-2
1.382714887E1,-5.986088514E-2,8.924102783E-2,-7.523536682E-3
1.383715864E1,-1.436942816E-2,4.143726826E-2,-7.826614380E-2
1.384716840E1,1.139575243E-2,7.272195816E-2,-1.424903870E-1
1.385720869E1,2.802431583E-3,3.958988190E-2,-1.060523987E-1
1.386721845E1,1.740151644E-2,1.312351227E-2,-1.077909470E-1
1.387725874E1,1.700222492E-2,-3.230333328E-3,-3.915405273E-2
1.388726850E1,1.156777143E-2,-3.876233101E-2,3.350734711E-2
1.389727827E1,7.473826408E-4,-1.087678671E-1,2.880191803E-2
1.390731855E1,-2.871525288E-2,-8.027231693E-2,3.796100616E-2
1.391732832E1,-4.871052504E-2,-1.060303450E-1,3.744316101E-2
1.392733808E1,3.094494343E-3,-1.091489792E-1,1.769542694E-2
1.393737836E1,-2.197027206E-3,-8.443307877E-2,-1.098251343E-2
1.394738813E1,-3.113037348E-2,-4.558229446E-2,1.262569427E-2
1.395739790E1,-7.142066956E-3,-3.494155407E-2,3.246307373E-3
1.396743818E1,-7.245242596E-3,-1.443624496E-4,-1.448631287E-3
1.397744794E1,4.383528233E-2,-3.304481506E-3,6.470584869E-2
1.398748823E1,1.802986860E-2,3.188312054E-2,3.515529633E-2
1.399749799E1,3.067284822E-2,5.188918114E-2,3.478240967E-2
1.400750776E1,1.603397727E-2,8.643603325E-2,-8.044242859E-3
1.401754804E1,3.558889031E-2,6.432127953E-2,-4.996299744E-2
1.402758833E1,4.583248496E-2,7.280278206E-2,-1.144609451E-1
1.403759809E1,2.748745680E-2,8.781814575E-2,-1.212425232E-1
1.404760786E1,4.132226110E-2,3.265976906E-2,-5.215358734E-2
1.405761762E1,2.076509595E-2,3.065896034E-2,3.975772858E-2
1.406765790E1,8.962929249E-3,3.198051453E-2,6.357669830E-2
1.407766767E1,2.047359943E-3,-1.674413681E-3,3.456115723E-2
1.408767744E1,4.949659109E-3,-1.347303391E-2,-8.428573608E-3
1.409771772E1,-1.515650749E-2,-7.760047913E-3,-2.275276184E-2
1.410772749E1,-4.359984398E-2,1.361966133E-3,-5.079269409E-2
1.411776777E1,-1.395529509E-2,-4.791975021E-3,-7.863998413E-2
1.412777753E1,1.534193754E-3,-2.574467659E-2,-4.928207397E-2
1.413778730E1,-2.140063047E-2,-3.302323818E-2,2.188968658E-2
1.414782758E1,-2.579018474E-2,-2.687418461E-2,6.908416748E-3
1.415783735E1,-4.463425279E-2,-3.586244583E-2,5.805110931E-2
1.416784711E1,-6.296408176E-2,-1.648259163E-2,5.175399780E-2
1.417785688E1,-2.333188057E-2,-2.975225449E-2,-5.378246307E-2
1.418789716E1,-3.189700842E-2,-3.307104111E-3,-4.363536835E-2
1.419793745E1,-1.683476567E-2,1.995515823E-2,-4.780673981E-2
1.420794721E1,-2.614143491E-2,6.623268127E-3,-2.312183380E-2
1.421795698E1,-1.224246621E-2,2.274644375E-2,3.427410126E-2
1.422799726E1,4.938781261E-3,3.225803375E-4,9.524059296E-2
1.423800703E1,8.276134729E-3,2.996373177E-2,6.501197815E-2
1.424801679E1,-1.155543327E-2,2.525877953E-2,4.976844788E-2
1.425802656E1,-2.093091607E-2,3.503346443E-2,1.149272919E-2
1.426806684E1,-1.659572124E-3,6.914377213E-3,-6.443119049E-2
1.427810712E1,-1.631736755E-3,-2.497994900E-2,-1.391859055E-1
1.428811689E1,-1.106679440E-2,1.444399357E-2,-1.223316193E-1
1.429812666E1,-1.126834750E-2,-8.136630058E-3,-1.345081329E-1
1.430816694E1,3.080627322E-2,-7.771968842E-3,-6.601715088E-2
1.431817670E1,3.836271167E-2,-1.835334301E-2,-4.605102539E-2
1.432830854E1,2.199319005E-2,-2.054095268E-3,-1.756572723E-2
1.434317060E1,9.772866964E-3,-4.735195637E-2,6.604385376E-2
1.435321088E1,3.253063560E-2,-3.441441059E-2,3.074741364E-2
1.436328168E1,-1.529058814E-2,-3.615713120E-2,4.801177979E-2
1.437332197E1,1.434981823E-4,-2.760803699E-2,4.630374908E-2
1.438336225E1,-2.256631851E-2,-1.819372177E-2,2.228736877E-3
1.439337202E1,-6.579250097E-3,2.619385719E-2,6.657600403E-3
1.440338178E1,-7.412731647E-4,4.821133614E-2,-4.580402374E-2
1.441339155E1,5.624797940E-2,6.643712521E-2,2.256393433E-3
1.442340131E1,2.291947603E-3,2.857875824E-2,-1.174926758E-2
1.443341108E1,1.006543636E-3,4.286265373E-2,-2.118682861E-2
1.444345136E1,-1.393279433E-2,5.167412758E-2,-3.505039215E-2
1.445346113E1,-3.257179260E-2,1.291227341E-2,-3.448200226E-2
1.446350141E1,1.043781638E-2,1.315677166E-2,1.343154907E-2
1.447351118E1,-7.012116909E-2,8.548736572E-3,2.254772186E-2
1.448352094E1,-6.983390450E-2,-5.678892136E-3,6.931591034E-2
1.449356122E1,-4.145273566E-2,-2.128601074E-3,1.009149551E-1
1.450357099E1,-4.216596484E-2,1.865541935E-2,9.406280518E-2
1.451358076E1,-1.835379004E-2,4.732990265E-2,6.326484680E-2
1.452359052E1,-4.182371497E-2,-1.281619072E-3,1.906967163E-2
1.453363081E1,-2.164825797E-2,7.428884506E-3,-9.079456329E-2
1.454367109E1,2.261269093E-2,-1.612555981E-2,-8.510398865E-2
1.455371137E1,2.322757244E-2,-1.433193684E-2,-1.265497208E-1
1.456372114E1,2.799805999E-2,-4.423522949E-2,-1.528959274E-1
1.457373090E1,5.648636818E-2,-3.910672665E-2,-1.792144775E-2
1.458374067E1,1.716446877E-2,-4.313504696E-2,1.492500305E-3
1.459378095E1,3.015029430E-2,-2.870190144E-2,6.756782532E-2
1.460379072E1,8.865267038E-3,-2.044677734E-2,8.033561707E-2
1.461383100E1,1.205727458E-2,-8.849024773E-3,5.458831787E-2
1.462384077E1,3.934580088E-2,1.587140560E-2,5.286026001E-2
1.463385053E1,-1.395159960E-2,2.147674561E-3,-2.884483337E-2
1.464386030E1,1.374673843E-2,1.763904095E-2,-3.118515015E-4
1.465390058E1,3.661274910E-3,4.366922379E-2,-4.794692993E-2
1.466391035E1,1.249462366E-2,-2.897381783E-2,-3.309249878E-2
1.467395063E1,2.086916566E-2,2.292358875E-2,-1.354694366E-2
1.468396040E1,-6.493926048E-5,7.511854172E-3,2.899360657E-2
1.469397016E1,-2.575406432E-2,5.660653114E-3,4.227447510E-2
1.470401044E1,-3.142097592E-2,-1.161980629E-2,5.552673340E-2
1.471402021E1,-2.628961205E-2,1.795244217E-2,-1.203536987E-2
1.472402998E1,-1.068529487E-2,3.702867031E-2,-6.425857544E-2
1.473407026E1,-2.330729365E-2,2.846038342E-2,-4.467105865E-2
1.474411054E1,-3.628602624E-2,3.518283367E-2,-3.916168213E-2
1.475412031E1,-2.281218767E-3,-1.465094090E-2,5.129528046E-2
1.476413007E1,-3.267586231E-3,1.255011559E-2,1.716899872E-2
1.477413984E1,-9.578078985E-3,6.288409233E-3,4.956626892E-2
1.478418012E1,-3.076416254E-2,1.884245872E-2,3.928089142E-2
1.479418989E1,-2.279236913E-2,-1.162791252E-2,3.363037109E-2
1.480423017E1,-1.933220029E-2,9.831070900E-3,9.140014648E-3
1.481423994E1,-1.520115137E-2,2.454161644E-3,-1.500892639E-2
1.482424970E1,-1.982232928E-2,4.420399666E-3,-2.444839478E-2
1.483428999E1,-4.961818457E-3,5.885362625E-3,8.675575256E-3
1.484429975E1,-1.472952962E-2,-4.030847549E-2,8.132934570E-3
1.485430952E1,-2.439180017E-2,-2.034962177E-2,1.229953766E-2
1.486434980E1,-5.331838131E-2,-7.125139236E-4,-1.696777344E-2
1.487435956E1,-1.526546478E-2,8.672714233E-3,-5.497074127E-2
1.488436933E1,-5.845010281E-3,4.199814796E-2,-4.998111725E-2
1.489440961E1,2.244484425E-2,2.832722664E-2,-2.587699890E-2
1.490441938E1,-2.994850278E-2,6.049394608E-3,-4.469966888E-2
1.491445966E1,2.195632458E-2,-2.051568031E-2,2.200126648E-2
1.492446943E1,-1.180154085E-2,-1.870727539E-2,5.444145203E-2
1.493447919E1,3.067672253E-2,-2.066969872E-3,7.231903076E-2
1.494451948E1,1.038095355E-2,-3.332471848E-2,6.128025055E-2
1.495452924E1,9.728401899E-3,-4.512345791E-2,2.201843262E-2
1.496456953E1,4.574567080E-3,-3.265869617E-2,-2.135658264E-2
1.497457929E1,3.231757879E-2,3.214633465E-2,-1.178359985E-2
1.498458906E1,-1.470506191E-3,1.535058022E-3,-3.541564941E-2
1.499461197E1,3.602832556E-2,9.764552116E-3,-1.610851288E-2
1.500462174E1,6.549000740E-3,2.250134945E-2,-2.542972565E-2
1.501466202E1,-3.611773252E-3,2.058029175E-2,-1.542663574E-2
1.502467178E1,-8.799672127E-3,3.812074661E-3,-1.561927795E-2
1.503468155E1,-2.284443378E-2,2.969563007E-2,2.216243744E-2
1.504472183E1,-3.278106451E-3,2.186334133E-2,5.449867249E-2
1.505473160E1,-2.835690975E-3,2.350747585E-2,7.693481445E-2
1.506477188E1,-1.699897647E-2,-8.121490479E-3,7.050323486E-2
1.507478165E1,-7.713973522E-3,1.802229881E-2,2.156066895E-2
1.508479141E1,-2.826839685E-3,-7.543087006E-3,2.121829987E-2
1.509480118E1,6.791979074E-3,2.942681313E-2,-4.517459869E-2
1.510484146E1,-1.639062166E-2,1.935040951E-2,-2.546310425E-2
1.511485123E1,-6.022632122E-3,-9.261012077E-3,-6.757640839E-2
1.512489151E1,2.844986320E-2,-4.132032394E-3,-6.631374359E-2
1.513490128E1,4.813766479E-2,-3.201866150E-2,-3.666877747E-2
1.514491104E1,6.213605404E-2,-4.130458832E-2,-5.048465729E-2
1.515492081E1,5.577614903E-2,-6.505060196E-2,3.980922699E-2
1.516496109E1,-4.151767492E-2,-3.768181801E-2,3.419876099E-2
1.517497086E1,-5.117666721E-2,-8.256292343E-2,-3.784942627E-2
1.518501114E1,-5.467170477E-2,5.338430405E-3,-2.338695526E-2
1.519502091E1,-3.399303555E-2,-1.887202263E-3,-4.201602936E-2
1.520506119E1,-1.335284114E-2,6.000638008E-3,-8.304595947E-3
1.521507096E1,-2.231726050E-2,3.349018097E-2,4.863452911E-2
1.522511124E1,-2.243608236E-2,4.101312160E-2,9.984970093E-2
1.523512100E1,-1.793840528E-2,5.684304237E-2,1.169500351E-1
1.524513077E1,-3.368288279E-3,8.530628681E-2,7.188034058E-2
1.525517105E1,-3.138354421E-2,6.965374947E-2,7.019996643E-2
1.526518082E1,-5.700975657E-3,6.338369846E-2,-2.140903473E-2
1.527519058E1,1.969939470E-2,6.773686409E-2,-6.406879425E-2
1.528523087E1,3.081837296E-2,2.609264851E-2,-7.757949829E-2
1.529524063E1,2.295905352E-2,3.433883190E-2,-7.618236542E-2
1.530528092E1,1.511198282E-2,-3.007888794E-3,-2.252006531E-2
1.531529068E1,-2.582195401E-2,-5.286443233E-2,-1.242065430E-2
1.532530045E1,-1.905232668E-2,-6.400966644E-2,4.035091400E-2
1.533531021E1,-8.042633533E-3,-6.575286388E-2,4.479122162E-2
1.534535050E1,-7.816880941E-3,-7.219529152E-2,1.118564606E-2
1.535536026E1,-1.723736525E-2,-3.147053719E-2,-3.598690033E-2
1.536540055E1,-7.743209600E-3,-3.433287144E-2,-4.464340210E-2
1.537541031E1,1.609262824E-2,-3.316783905E-2,-2.032375336E-2
1.538545059E1,1.161092520E-2,-5.186676979E-2,-3.402328491E-2
1.539546036E1,-2.222508192E-3,4.477024078E-3,-1.003837585E-2
1.540547012E1,2.668628097E-2,-1.680350304E-2,4.209518433E-3
1.541551041E1,1.690742373E-2,8.348226547E-3,1.310920715E-2
1.542552017E1,-1.797825098E-2,2.749407291E-2,6.883907318E-2
1.543556046E1,-1.430964470E-2,5.469477177E-2,5.753898621E-2
1.544557022E1,-2.834069729E-2,9.050047398E-2,2.250289917E-2
1.545557999E1,-3.228080273E-2,1.074280739E-1,-4.009723663E-2
1.546562027E1,1.145893335E-2,1.062529087E-1,-1.609897614E-2
1.547563004E1,-2.142256498E-2,5.953621864E-2,-1.744270325E-3
1.548563980E1,-3.084561229E-2,1.502573490E-2,1.706123352E-2
1.549568009E1,-7.430315018E-3,-4.407405853E-3,1.201152802E-2
1.550568985E1,-4.151976109E-2,4.168748856E-4,9.220409393E-2
1.551569962E1,5.261510611E-3,-3.309404850E-2,1.007652283E-2
1.552570938E1,-5.555272102E-3,-5.711209774E-2,4.736137390E-2
1.553574967E1,-3.029736876E-2,-3.410053253E-2,2.302169800E-2
1.554578995E1,1.222541928E-2,-3.086662292E-2,-2.028274536E-2
1.555579972E1,-1.618582010E-2,-8.906245232E-3,-4.851245880E-2
1.556580948E1,2.246093750E-2,-2.522838116E-2,8.492469788E-3
1.557584976E1,-1.297295094E-3,3.352153301E-2,-1.214027405E-3
1.558585953E1,3.519326448E-3,-1.780819893E-2,1.246070862E-2
1.559586930E1,-2.544698119E-2,2.107465267E-2,2.128124237E-2
1.560590958E1,-6.707012653E-3,-2.100825310E-3,-1.714324951E-2
1.561591934E1,-3.985226154E-2,2.714192867E-2,-1.251125336E-2
1.562595963E1,-2.996987104E-2,4.306435585E-3,-3.602313995E-2
1.563596939E1,-2.946242690E-2,-3.930807114E-3,-1.208591461E-2
1.564597916E1,-3.413024545E-2,-1.130795479E-2,-2.649593353E-2
1.565601944E1,-2.001762390E-2,-4.054188728E-3,-1.696586609E-2
1.566602921E1,-5.667626858E-3,-4.948270321E-2,3.978919983E-2
1.567606949E1,-1.203536987E-3,-2.344441414E-2,1.991176605E-2
1.568607926E1,-1.590937376E-3,-4.076313972E-2,3.327655792E-2
1.569608902E1,-3.011453152E-2,-6.185889244E-3,2.784919739E-2
1.570612931E1,3.599405289E-3,8.800506592E-3,3.656196594E-2
1.571613907E1,-1.514384151E-2,1.411318779E-2,-2.305984497E-3
1.572617935E1,4.589557648E-5,2.435827255E-2,-2.882957458E-3
1.573618912E1,-1.357540488E-2,1.187521219E-2,1.566886902E-3
1.574629044E1,-2.255502343E-2,3.390854597E-2,-3.371238708E-3
1.575633072E1,-1.275983453E-2,2.912086248E-2,-5.036735535E-2
1.577119278E1,-1.740646362E-2,1.779687405E-2,-4.476070404E-2
1.578123306E1,-3.175169230E-2,-7.520079613E-3,-5.795669556E-2
1.579130387E1,1.091307402E-2,-9.003996849E-3,1.910114288E-2
1.580131363E1,-9.255886078E-3,-6.704688072E-3,2.838516235E-2
1.581135391E1,1.286816597E-2,-5.542755127E-3,6.117153168E-2
1.582136368E1,5.775719881E-2,-2.048170567E-2,5.526351929E-2
1.583140396E1,1.692038774E-2,2.067291737E-2,-3.125000000E-2
1.584141373E1,5.170911551E-3,1.808369160E-2,-3.106307983E-2
1.585145401E1,3.657031059E-2,3.443014622E-2,2.367973328E-3
1.586146378E1,1.128953695E-2,-2.529692650E-2,1.176929474E-2
1.587150406E1,-1.282539964E-2,-2.249985933E-2,1.103401184E-2
1.588151383E1,-1.240804791E-2,-2.433234453E-2,-7.895278931E-2
1.589152359E1,-2.166092396E-3,-3.539007902E-2,7.318496704E-3
1.590156388E1,2.758294344E-3,-1.359826326E-2,3.973770142E-2
1.591157364E1,3.995096684E-2,-3.519743681E-2,4.851341248E-2
1.592158341E1,-1.863896847E-2,-4.785257578E-2,-4.648208618E-3
1.593162369E1,-3.239327669E-2,-4.228973389E-2,-5.705356598E-2
1.594166397E1,-4.529911280E-2,-3.572523594E-3,-8.956241608E-2
1.595170426E1,-2.421289682E-2,6.800591946E-3,5.942344666E-3
1.596671890E1,-3.161671758E-2,2.104687691E-2,2.916049957E-2
1.598170304E1,-6.436598301E-2,2.112907171E-2,9.844589233E-2
1.599171280E1,-7.798042893E-2,2.177816629E-2,5.858325958E-2
1.600175308E1,-6.216779351E-2,7.806032896E-2,8.538627625E-2
1.601176285E1,-2.748897672E-2,8.589297533E-2,3.601169586E-2
1.602177262E1,2.391397953E-3,9.324294329E-2,1.627635956E-2
1.603181290E1,8.275747299E-3,7.196980715E-2,-4.130554199E-2
1.604182266E1,4.661402106E-2,4.269737005E-2,-6.962013245E-2
1.605186295E1,1.319369674E-2,3.802132607E-2,-4.502391815E-2
1.606187271E1,1.320302486E-2,1.072168350E-3,-7.304859161E-2
1.607191300E1,1.807805896E-2,-3.010708094E-2,-3.416824341E-2
1.608192276E1,8.179098368E-3,-6.033545732E-2,-7.734298706E-4
1.609193253E1,-2.085715532E-3,-4.782670736E-2,-9.374618530E-4
1.610194229E1,1.901865005E-3,-6.929272413E-2,-6.409645081E-3
1.611198258E1,6.656348705E-4,-1.950985193E-2,1.239681244E-2
1.612199234E1,3.285849094E-2,-1.807951927E-2,-3.567600250E-2
1.613200211E1,-1.584228873E-2,-2.621191740E-2,-3.112220764E-2
1.614204239E1,-1.181825995E-2,-1.526206732E-2,-4.067993164E-2
1.615208267E1,1.146447659E-2,-2.334940434E-2,-4.024124146E-2
1.616209244E1,1.535260677E-2,-5.005675554E-2,2.633094788E-3
1.617210220E1,1.358833909E-2,8.400559425E-3,6.391334534E-2
1.618214249E1,3.558802605E-2,-1.521116495E-2,5.731773376E-2
1.619215225E1,-2.717226744E-2,3.474593163E-3,6.078338623E-2
1.620219254E1,-3.567913175E-2,4.525268078E-2,-1.161956787E-2
1.621220230E1,-5.635380745E-3,4.918265343E-2,-4.504108429E-2
1.622221207E1,-2.285453677E-2,4.480415583E-2,-8.708190918E-2
1.623222183E1,-1.222893596E-2,2.294301987E-2,-6.652545929E-2
1.624223160E1,2.132123709E-2,2.593153715E-2,-1.779937744E-2
1.625227188E1,-2.816677094E-3,-3.698468208E-3,1.275062561E-3
1.626231217E1,-1.299786568E-2,-1.475918293E-2,6.723594666E-2
1.627232193E1,1.038312912E-2,1.616299152E-3,5.180931091E-2
1.628233170E1,1.914748549E-2,-1.664757729E-3,6.019783020E-2
1.629237198E1,-5.200713873E-3,-3.377538919E-2,5.872154236E-2
1.630238175E1,-1.457640529E-2,-9.020030499E-3,4.299831390E-2
1.631242203E1,-8.859276772E-3,1.538378000E-2,4.013061523E-3
1.632243180E1,-2.703452110E-2,-7.417738438E-3,3.617286682E-3
1.633244156E1,-4.482904077E-2,1.778215170E-2,-2.028465271E-2
1.634248184E1,-2.479729056E-2,5.111455917E-3,-4.384040833E-2
1.635252213E1,-1.029834151E-2,1.241761446E-2,-2.928829193E-2
1.636253189E1,-5.818068981E-3,-8.307933807E-3,-4.980087280E-3
1.637254166E1,-3.017100692E-2,3.316330910E-2,-6.190776825E-2
1.638258194E1,1.256170869E-2,2.205902338E-2,-1.869678497E-2
1.639259171E1,1.714774966E-2,-7.861137390E-3,-4.206752777E-2
1.640260147E1,-2.202659845E-3,-1.368266344E-2,-2.286243439E-2
1.641261124E1,-7.038354874E-3,-1.012712717E-2,7.220268250E-2
1.642265152E1,-2.175238729E-2,-3.525775671E-2,4.286098480E-2
1.643266129E1,1.564234495E-3,-2.715247869E-2,4.203414917E-2
1.644267105E1,-8.154481649E-3,-3.391033411E-2,2.222728729E-2
1.645271134E1,5.597382784E-3,-1.189303398E-2,2.623558044E-2
1.646275162E1,-3.905236721E-3,-1.879745722E-2,3.980731964E-2
1.647276139E1,-2.279204130E-2,7.820129395E-3,3.437519073E-2
1.648277115E1,6.193906069E-3,1.076126099E-2,4.320526123E-2
1.649278092E1,-1.303002238E-2,9.489238262E-3,1.411342621E-2
1.650282120E1,-1.748761535E-2,-2.431327105E-2,-2.879619598E-2
1.651283097E1,6.559222937E-3,2.354496717E-2,-4.723072052E-2
1.652287125E1,1.581642032E-2,1.449865103E-2,-5.625915527E-2
1.653288101E1,-2.702093124E-2,1.147753000E-2,-6.461334229E-2
1.654292130E1,1.568502188E-2,8.275091648E-3,-2.080059052E-2
1.655293106E1,1.957091689E-2,4.813075066E-4,1.269912720E-2
1.656294083E1,-4.734039307E-3,8.154511452E-4,7.753372192E-3
1.657295059E1,-1.900452375E-2,5.088925362E-3,7.611274719E-3
1.658299088E1,4.905819893E-3,1.745283604E-2,1.662063599E-2
1.659300064E1,2.242326736E-4,4.798007011E-2,-7.596969604E-3
1.660304093E1,-1.407763362E-2,1.521885395E-3,3.496265411E-2
1.661305069E1,-9.618788958E-3,-6.604731083E-3,-1.343154907E-2
1.662306046E1,9.247988462E-3,3.328728676E-2,-1.325225830E-2
1.663310074E1,-6.174191833E-2,-7.381796837E-3,-3.624916077E-3
1.664314102E1,-8.507937193E-3,-4.654902220E-2,6.216049194E-3
1.665315079E1,-5.018925667E-2,-4.356861115E-3,1.174926758E-3
1.666319107E1,8.456110954E-3,-2.840358019E-2,-4.136943817E-2
1.667823624E1,5.287110806E-3,-1.743662357E-2,-4.460620880E-2
1.669315933E1,7.137376070E-2,-5.385035276E-2,3.592205048E-2
1.670323014E1,5.519437790E-2,-3.461945057E-2,1.623535156E-2
1.671323990E1,2.021172643E-2,-1.130312681E-2,-3.619670868E-2
1.672328018E1,4.834875464E-2,-1.725590229E-2,-1.018791199E-1
1.673328995E1,1.967012882E-2,-4.653364420E-2,-4.837131500E-2
1.674333023E1,1.516893506E-2,1.201868057E-3,4.631042480E-3
1.675334000E1,-8.540391922E-3,1.045447588E-2,2.365207672E-2
1.676338028E1,7.798671722E-4,5.409061909E-3,1.819896698E-2
1.677339005E1,-5.226665735E-2,8.964717388E-3,8.875370026E-2
1.678343033E1,-6.194224954E-2,4.442596436E-2,1.107139587E-1
1.679344010E1,-1.531839371E-4,2.114415169E-2,8.939647675E-2
1.680344986E1,-4.330402613E-2,4.920369387E-2,6.362915039E-2
1.681345963E1,-5.679884553E-2,4.370218515E-2,-3.221607208E-2
1.682349991E1,-1.775038242E-2,5.743426085E-2,-2.747440338E-2
1.683354019E1,-1.665452123E-2,3.399443626E-2,-3.176403046E-2
1.684354996E1,-2.507644892E-2,1.211512089E-2,-8.316707611E-2
1.685355972E1,-5.700290203E-4,1.352906227E-3,-8.179855347E-2
1.686360001E1,-4.838824272E-3,-1.312959194E-2,4.780769348E-3
1.687360977E1,9.939014912E-3,-7.456016541E-2,4.631042480E-3
1.688365006E1,-1.428711414E-2,-5.516189337E-2,1.858901978E-2
1.689863419E1,-1.006403565E-2,-4.586094618E-2,3.663444519E-2
1.690867447E1,8.173495531E-3,-3.241294622E-2,-2.028465271E-3
1.691868424E1,1.234436035E-2,-2.361726761E-2,2.566337585E-3
1.692869400E1,-2.107781172E-2,-6.219327450E-2,-4.003334045E-2
1.693873429E1,1.683449745E-2,4.299342632E-3,-2.536964417E-2
1.694877457E1,5.434793234E-2,-1.491284370E-2,-1.079273224E-2
1.695878433E1,3.841969371E-2,9.214878082E-3,1.321029663E-2
1.696879410E1,1.249319315E-2,-5.397260189E-3,6.977844238E-2
1.697883438E1,1.290440559E-3,-1.164370775E-2,6.371974945E-2
1.698884415E1,-1.805263758E-2,1.911038160E-2,-8.530616760E-3
1.699885391E1,6.568461657E-3,3.033179045E-2,-3.720569611E-2
1.700889420E1,-1.529085636E-2,3.243446350E-2,-5.566024780E-2
1.701890396E1,1.484715939E-2,2.125316858E-2,-4.055976868E-2
1.702894425E1,-8.333295584E-3,3.018474579E-2,-5.405902863E-2
1.703895401E1,-4.138335586E-2,1.101893187E-2,2.231597900E-2
1.704896378E1,-3.654807806E-2,6.372332573E-3,5.955982208E-2
1.705900406E1,2.029508352E-2,-1.792341471E-2,8.210945129E-2
1.706901383E1,3.860592842E-4,-2.431869507E-5,4.291152954E-2
1.707905411E1,2.326202393E-2,3.161662817E-2,6.087303162E-2
1.708906388E1,1.331716776E-2,3.874897957E-2,4.071807861E-2
1.709907364E1,1.311218739E-2,2.703517675E-2,-7.432937622E-3
1.710908341E1,1.762446761E-2,2.522242069E-2,-3.605747223E-2
1.711912369E1,3.419190645E-3,2.890425920E-2,1.173782349E-2
1.712913346E1,-2.059459686E-2,1.344138384E-2,-1.218128204E-2
1.713917374E1,-1.130554080E-2,3.127992153E-3,6.781578064E-3
1.714918350E1,-6.924748421E-3,1.688987017E-2,-3.014564514E-3
1.715922379E1,-2.389609814E-3,-2.814650536E-3,-7.714271545E-3
1.716923355E1,-1.680216193E-2,1.110136509E-2,-2.650833130E-2
1.717924332E1,-4.490876198E-2,-2.183586359E-2,-2.105617523E-2
1.718925308E1,1.219499111E-2,-5.830878019E-2,-6.315803528E-2
1.719929337E1,-1.641610265E-2,-6.596779823E-2,-1.970672607E-2
1.720930313E1,-7.133454084E-3,-6.890743971E-2,-5.712604523E-2
1.721934342E1,6.935834885E-3,-9.119403362E-2,3.623962402E-4
1.722935318E1,1.124817133E-2,-2.845698595E-2,1.451778412E-2
1.723936295E1,-1.740530133E-2,-4.356956482E-2,-4.786491394E-3
1.724940323E1,1.629802585E-2,-1.630210876E-2,-5.070686340E-3
1.725944351E1,-2.651306987E-2,1.512467861E-2,-1.934432983E-2
1.726945328E1,2.446234226E-3,3.340780735E-3,-3.312397003E-2
1.727946304E1,-2.124023438E-2,2.483195066E-2,-1.377964020E-2
1.728950333E1,7.349014282E-3,4.602575302E-2,-4.200935364E-3
1.729951309E1,-1.916676760E-3,5.266833305E-2,2.994537354E-4
1.730955338E1,-4.900094867E-2,3.055560589E-2,4.789638519E-2
1.731956314E1,-2.896636724E-2,5.629861355E-2,4.341125488E-3
1.732957291E1,-9.761422873E-3,4.393947124E-2,5.122375488E-2
1.733958267E1,-5.584180355E-3,3.149801493E-2,6.921482086E-2
1.734959244E1,-1.646301150E-2,4.298424721E-2,1.610088348E-2
1.735963272E1,2.112039924E-2,1.220041513E-2,-3.160476685E-3
1.736967301E1,-2.639412880E-2,2.056801319E-2,-3.062248230E-3
1.737968277E1,7.672876120E-3,5.667328835E-3,2.579402924E-2
1.738969254E1,-1.049086452E-2,-3.707176447E-2,6.573677063E-3
1.739973282E1,-2.816289663E-2,-2.208250761E-2,-6.448554993E-2
1.740974259E1,1.630944014E-2,-4.005050659E-2,-6.325340271E-2
1.741975235E1,-1.165398955E-2,-2.409648895E-2,3.699302673E-2
1.742979264E1,5.912113190E-2,-1.816487312E-2,3.422737122E-3
1.743980240E1,5.195662379E-2,-3.254055977E-3,1.714038849E-2
1.744981217E1,-2.439022064E-3,-4.210174084E-3,-3.974246979E-2
1.745985245E1,6.329536438E-3,-1.969069242E-2,-9.132385254E-2
1.746986222E1,1.577460766E-2,-1.576656103E-2,-7.557964325E-2
1.747987198E1,-3.709375858E-3,-4.948723316E-2,-4.143524170E-2
1.748991226E1,-2.757626772E-2,-3.057438135E-2,-1.236248016E-2
1.749992203E1,-5.628460646E-2,-3.100448847E-2,4.933261871E-2
1.750996231E1,-5.163243413E-2,-1.332187653E-2,6.694030762E-2
1.751997208E1,-5.073836446E-2,-4.948097467E-2,8.439350128E-2
1.752998184E1,-4.937034845E-2,-1.051753759E-2,7.783126831E-2
1.754002213E1,-6.208661199E-2,-5.939960480E-3,8.078289032E-2
1.755003189E1,-2.685466409E-2,5.117255449E-2,8.188247681E-3
1.756004166E1,1.714271307E-2,6.093454361E-2,-4.371356964E-2
1.757008194E1,4.171416163E-2,5.766874552E-2,-7.632541656E-2
1.758012222E1,2.797466516E-2,4.180049896E-2,-1.080236435E-1
1.759013199E1,1.883357763E-2,4.182893038E-2,-4.942321777E-2
1.760014176E1,2.894923091E-2,3.798198700E-2,-1.553058624E-2
1.761018204E1,-8.476078510E-3,-8.482754230E-3,1.796054840E-2
1.762019180E1,1.564317942E-2,-2.155828476E-2,3.656291962E-2
1.763023209E1,-8.046686649E-3,-4.382157326E-2,1.707553864E-2
1.764524674E1,-3.547221422E-3,-3.733253479E-2,-3.953456879E-2
1.765525650E1,-1.332992315E-2,-3.648710251E-2,-1.550865173E-2
1.766529679E1,5.176961422E-4,-5.042940378E-2,-1.055431366E-2
1.767530655E1,7.688999176E-5,-4.512453079E-2,-3.848361969E-2
1.768531632E1,8.879721165E-3,-5.426299572E-2,-9.620666504E-3
1.769535660E1,-1.143121719E-2,-4.015928507E-2,4.244327545E-2
1.770539688E1,-2.738067508E-2,-8.045732975E-3,8.889389038E-2
1.771540665E1,-4.344820976E-3,-1.012367010E-2,3.075885773E-2
1.772541641E1,-4.169818759E-2,1.562035084E-2,-1.744842529E-2
1.773542618E1,-2.513200045E-2,1.314347982E-2,-5.000305176E-2
1.774546646E1,-7.622897625E-3,2.131760120E-2,-9.639739990E-2
1.775547623E1,-1.162707806E-3,4.522794485E-2,-8.983707428E-2
1.776551651E1,-9.511858225E-3,1.268720627E-2,-1.245021820E-2
1.777552628E1,4.475682974E-3,-9.811401367E-3,4.960155487E-2
1.778553604E1,2.707344294E-2,3.740191460E-4,3.912353516E-2
1.779554581E1,1.352995634E-3,1.863658428E-2,9.494304657E-2
1.780558609E1,8.906513453E-3,1.688647270E-2,4.577350616E-2
1.781559586E1,-1.190197468E-2,1.900595427E-2,5.426979065E-2
1.782563614E1,-1.268976927E-2,2.074378729E-2,5.654335022E-3
1.783564591E1,-3.564178944E-3,4.157352448E-2,1.479148865E-2
1.784565567E1,1.534315944E-2,9.179711342E-4,9.756088257E-3
1.785566544E1,-2.735185623E-2,-1.012074947E-2,-3.758525848E-2
1.786570572E1,6.397545338E-3,1.265466213E-2,-4.644298553E-2
1.787571549E1,1.235604286E-3,-2.085262537E-2,-1.254749298E-2
1.788575577E1,-3.697329760E-2,-1.562136412E-2,-3.592872620E-2
1.789576554E1,6.071358919E-3,-1.978510618E-2,-3.538799286E-2
1.790580582E1,-1.726737618E-2,-3.321236372E-2,-3.934192657E-2
1.791581558E1,1.636016369E-2,-4.716032743E-2,-1.010894775E-3
1.792585587E1,1.722267270E-2,-4.220122099E-2,-1.031589508E-2
1.793586563E1,4.619011283E-2,-2.830213308E-2,-9.298324585E-4
1.794587540E1,2.699822187E-2,-3.377985954E-2,-1.525688171E-2
1.795588516E1,7.569551468E-3,-3.931313753E-2,-1.978874207E-2
1.796589493E1,5.478763580E-2,-1.163148880E-2,2.307510376E-2
1.797593521E1,3.432026505E-2,2.059441805E-2,2.247524261E-2
1.798594498E1,4.358887672E-4,-4.775345325E-3,-1.118946075E-2
1.799598526E1,-9.195685387E-3,3.837704659E-3,-3.482723236E-2
1.800599503E1,1.001086831E-2,7.549703121E-3,1.285934448E-2
1.801603531E1,-1.842245460E-2,1.663565636E-3,3.085136414E-3
1.802604508E1,1.549261808E-2,-1.343286037E-2,2.985000610E-3
1.803608536E1,-4.105356336E-2,-9.531497955E-3,8.041381836E-3
1.804609512E1,-3.902265429E-2,3.656506538E-3,1.271629333E-2
1.805610489E1,-3.259643912E-2,1.611435413E-2,5.518245697E-2
1.806614517E1,-2.642583847E-2,4.891395569E-3,-1.203727722E-2
1.807615494E1,-3.042632341E-2,2.836227417E-3,1.618385315E-2
1.808622574E1,-3.029453754E-2,1.980638504E-2,4.876327515E-2
1.809629654E1,-4.436069727E-2,1.795476675E-2,-8.712768555E-3
1.811118912E1,-3.358206153E-2,-1.710331440E-2,5.329132080E-3
1.812119889E1,-5.591636896E-2,2.505981922E-2,1.464271545E-2
1.813126968E1,-4.438906908E-2,1.480787992E-2,-3.266811371E-2
1.814127945E1,1.498022676E-2,-3.251147270E-2,-8.397102356E-3
1.815128922E1,6.542295218E-3,-7.599592209E-3,-1.752948761E-2
1.816132950E1,4.438787699E-2,-2.996987104E-2,1.581192017E-2
1.817133927E1,7.090544701E-2,-2.839684486E-2,3.453731537E-2
1.818137955E1,6.284967065E-2,-4.078030586E-3,-2.783107758E-2
1.819138931E1,2.693548799E-2,-9.646832943E-3,-4.645824432E-2
1.820139908E1,6.321936846E-2,3.794968128E-3,-8.819770813E-2
1.821143936E1,2.806496620E-2,-1.418411732E-3,-9.157085419E-2
1.822147965E1,2.750605345E-3,-3.020697832E-2,-5.731964111E-2
1.823148941E1,1.065072417E-2,-1.330196857E-3,-4.227828979E-2
1.824149918E1,-5.167424679E-3,-1.598727703E-2,1.942920685E-2
1.825153946E1,-2.986693382E-2,1.619398594E-3,7.071685791E-2
1.826154923E1,-4.860362411E-2,1.748502254E-2,9.748840332E-2
1.827155899E1,-1.869732141E-2,2.884566784E-3,1.144781113E-1
1.828159928E1,-2.225494385E-2,7.739835978E-2,1.075067520E-1
1.829160904E1,-1.787692308E-3,5.616599321E-2,4.869842529E-2
1.830161881E1,2.846646309E-2,6.425499916E-2,-1.365280151E-2
1.831165909E1,4.888954759E-2,4.963725805E-2,-3.722667694E-2
1.832166886E1,2.591943741E-2,3.226041794E-2,-1.118516922E-1
1.833170914E1,3.627043962E-2,7.192432880E-3,-7.224082947E-2
1.834171890E1,2.716788650E-2,2.593040466E-3,-4.260635376E-2
1.835175919E1,2.203395963E-2,-2.990102768E-2,1.000404358E-3
1.836176895E1,-1.178744435E-2,-4.832088947E-2,-2.768993378E-2
1.837177872E1,-1.248228550E-2,-6.705397367E-2,3.403759003E-2
1.838181900E1,-1.293370128E-2,-6.704938412E-2,1.915550232E-2
1.839182877E1,-2.782928944E-2,-5.324065685E-2,2.808761597E-2
1.840186905E1,-4.718875885E-2,-3.979575634E-2,-5.565643311E-3
1.841187882E1,-4.225620627E-2,-5.493515730E-2,-3.425788879E-2
1.842191910E1,-1.347845793E-2,-1.292192936E-2,-3.361034393E-2
1.843192886E1,2.085566521E-4,-1.414692402E-2,-4.775047302E-3
1.844193863E1,-2.937218547E-2,-6.337523460E-3,3.771686554E-2
1.845194840E1,-6.275311112E-2,1.005375385E-2,1.303386688E-2
1.846195816E1,-6.141719222E-2,1.640713215E-2,2.217769623E-2
1.847199844E1,-5.843877792E-2,3.651666641E-2,-2.079010010E-2
1.848200821E1,1.132351160E-2,2.383035421E-2,-6.309890747E-2
1.849204849E1,8.574634790E-3,3.557842970E-2,-3.823375702E-2
1.850205826E1,2.474784851E-4,-4.141032696E-3,-9.001731873E-3
1.851209854E1,-1.372128725E-2,-4.962444305E-3,6.186199188E-2
1.852210831E1,-6.149780750E-2,-6.063699722E-3,6.093120575E-2
1.853211807E1,3.768581152E-2,2.157747746E-3,5.970001221E-2
1.854215836E1,7.806539536E-3,1.893979311E-2,3.023624420E-2
1.855216812E1,-7.610172033E-3,2.095526457E-2,5.795288086E-2
1.856220841E1,1.092463732E-2,-5.533695221E-3,-9.316444397E-3
1.857221817E1,1.533851027E-2,3.919208050E-2,3.793239594E-2
1.858222794E1,5.914181471E-3,1.710486412E-2,4.408836365E-3
1.859226822E1,3.377556801E-2,1.046657562E-4,-4.802131653E-2
1.860227799E1,-6.362497807E-4,2.811551094E-3,-5.722045898E-6
1.861228775E1,3.482997417E-3,1.469790936E-2,-3.317546844E-2
1.862232804E1,-2.526757121E-2,-3.998357058E-2,-3.766059875E-2
1.863233780E1,-2.008923888E-2,-3.228634596E-2,-2.322959900E-2
1.864237808E1,-2.523660660E-4,-2.431821823E-2,-4.170227051E-2
1.865238785E1,-2.369573712E-2,-4.505586624E-2,1.099777222E-2
1.866242813E1,-8.797973394E-3,-3.259438276E-2,-2.240180969E-2
1.867243790E1,6.544888020E-4,-2.989679575E-2,2.055358887E-2
1.868244766E1,4.945635796E-3,-2.237117290E-2,-1.770877838E-2
1.869248795E1,9.069770575E-3,-2.032732964E-2,1.076698303E-2
1.870249771E1,8.352965117E-3,-2.279937267E-2,-1.805019379E-2
1.871253800E1,-1.782715321E-3,-2.069324255E-2,7.820129395E-4
1.872254776E1,7.363051176E-3,-4.594862461E-3,5.265808105E-2
1.873255753E1,2.561509609E-3,6.808817387E-3,4.228115082E-2
1.874259781E1,1.677054167E-2,-2.465265989E-2,3.218936920E-2
1.875260758E1,-2.371877432E-3,5.968093872E-3,-1.372337341E-3
1.876261734E1,4.046794772E-2,2.697867155E-2,2.922058105E-3
1.877262711E1,-7.226198912E-3,5.327761173E-3,1.704025269E-2
1.878266739E1,7.823288441E-3,3.628838062E-2,-2.272605896E-3
1.879267716E1,-1.981639862E-2,-8.917868137E-3,-3.553676605E-2
1.880271744E1,-4.803568125E-3,4.175323248E-2,-1.614665985E-2
1.881272720E1,2.825349569E-2,1.137137413E-2,1.727676392E-2
1.882273697E1,-2.948623896E-2,2.907764912E-2,7.545471191E-3
1.883277725E1,-1.486539841E-3,1.365679502E-2,-2.099227905E-2
1.884278702E1,-3.507789969E-2,-6.096661091E-3,-3.508281708E-2
1.885279679E1,-4.421418905E-2,-3.024566174E-2,3.633022308E-2
1.886283707E1,4.419982433E-3,-1.678997278E-2,2.647781372E-2
1.887284683E1,-8.831232786E-3,-3.687894344E-2,-2.144432068E-2
1.888285660E1,-1.207706332E-2,-8.976936340E-3,-4.486942291E-2
1.889289688E1,-5.939334631E-3,-1.421821117E-2,-6.249427795E-3
1.890290665E1,3.764691949E-2,-4.327470064E-2,2.234554291E-2
1.891294693E1,2.722424269E-2,-4.857403040E-2,-1.102828979E-2
1.892295670E1,-1.123806834E-2,-5.928444862E-2,-2.048969269E-2
1.893296646E1,-1.735717058E-3,-2.732318640E-2,-1.149663925E-1
1.894300675E1,2.228724957E-2,-9.601414204E-3,-7.050514221E-2
1.895301651E1,1.208302379E-2,-4.385435581E-2,-3.626823425E-2
1.896305680E1,-1.743093133E-2,-6.454825401E-3,-1.197242737E-2
1.897306656E1,-3.773579001E-2,-3.157228231E-2,2.135658264E-2
1.898310684E1,-6.742617488E-2,-1.431381702E-2,1.297168732E-1
1.899311661E1,-5.385315418E-2,2.042788267E-2,8.952999115E-2
1.900312638E1,-2.519312501E-2,5.961239338E-3,1.303224564E-1
1.901316666E1,-3.428980708E-2,8.055251837E-2,8.532714844E-2
1.902323746E1,-2.422845364E-2,8.264416456E-2,2.692699432E-2
1.903330826E1,2.398556471E-2,1.233873963E-1,-1.148319244E-2
1.904813980E1,4.293283820E-2,9.532648325E-2,-4.040908813E-2
1.905818009E1,1.933670044E-2,6.269183755E-2,-2.079772949E-2
1.906825089E1,1.971596479E-2,2.659133077E-2,-3.008365631E-2
1.907829117E1,5.933791399E-3,5.688101053E-3,-6.236076355E-3
1.908830094E1,-2.231967449E-2,4.048466682E-3,2.199935913E-2
1.909831070E1,-3.099510074E-2,-2.533745766E-2,2.156352997E-2
1.910835098E1,-2.566015720E-2,-4.002466798E-2,6.773948669E-3
1.911836075E1,-2.065494657E-2,-5.916261673E-2,2.097320557E-2
1.912837052E1,-2.014425397E-2,-8.761879802E-2,-2.666759491E-2
1.913844132E1,-4.819324613E-2,-4.892542958E-2,-5.937576294E-2
1.914845108E1,-5.448907614E-3,-9.594270587E-2,-3.964138031E-2
1.915846085E1,3.712743521E-3,-6.664240360E-2,-3.423786163E-2
1.916847061E1,3.130856156E-2,-1.436260343E-2,1.352119446E-2
1.917851090E1,2.014496922E-2,-5.398780107E-3,3.195095062E-2
1.918852066E1,1.961511374E-2,-3.078323603E-2,7.746696472E-3
1.919856094E1,1.049697399E-3,2.878159285E-2,-1.139545441E-2
1.920857071E1,3.296345472E-3,2.637943625E-2,-7.762336731E-2
1.921858048E1,5.629301071E-3,1.529103518E-2,-9.047508240E-2
1.922859024E1,4.496857524E-2,6.883740425E-4,-8.889579773E-2
1.923863052E1,3.052389622E-2,2.493754029E-2,-2.586174011E-2
1.924867081E1,6.750872731E-2,2.529573441E-2,5.020332336E-2
1.925868057E1,1.375254989E-2,2.005425096E-2,1.154823303E-1
1.926869034E1,-2.126926184E-2,-9.724527597E-3,9.934520721E-2
1.927873062E1,2.485761046E-2,4.036146402E-2,7.370948792E-2
1.928874039E1,-3.376662731E-2,3.685116768E-2,1.060390472E-2
1.929875015E1,-1.089981198E-2,7.632499933E-2,2.938747406E-2
1.930879044E1,2.435505390E-3,5.379995704E-2,2.874755859E-2
1.931880020E1,-5.076682568E-2,4.206344485E-2,-1.433753967E-2
1.932880997E1,-8.314192295E-3,-6.750047207E-3,-1.385784149E-2
1.933885025E1,-5.132824183E-2,1.673373580E-2,5.228996277E-3
1.934886002E1,-4.686716199E-2,7.265448570E-3,-2.310657501E-2
1.935890030E1,-5.148753524E-2,7.469981909E-3,-2.742481232E-2
1.936891007E1,-3.208693862E-2,-2.050182223E-2,-7.865715027E-2
1.937891983E1,-6.901860237E-2,2.259629965E-2,-3.012084961E-2
1.938892960E1,-2.942278981E-2,-3.402510285E-2,-1.066112518E-2
1.939896988E1,-2.836835384E-2,-2.387794852E-2,-5.616188049E-3
1.940901016E1,-3.234121203E-2,-4.699674249E-2,5.104255676E-2
1.941901993E1,1.387417316E-3,-5.112436414E-2,1.706981659E-2
1.942902970E1,2.023231983E-2,-6.516301632E-2,5.896568298E-2
1.943903946E1,2.440613508E-2,-8.492052555E-3,3.455257416E-2
1.944907974E1,4.367518425E-2,-1.892983913E-2,1.033496857E-2
1.945912003E1,1.536154747E-2,-1.483801007E-2,1.072883606E-3
1.946912979E1,3.969332576E-2,2.307668328E-2,-4.117870331E-2
1.947913956E1,2.079308033E-2,1.873001456E-2,-1.019983292E-1
1.948914932E1,2.580589056E-2,-4.138410091E-3,-6.253337860E-2
1.949918961E1,1.125735044E-2,3.508907557E-2,9.710311890E-3
1.950922989E1,1.400172710E-3,1.629146934E-2,1.888942719E-2
1.951923966E1,1.524958014E-2,3.952607512E-2,7.552528381E-2
1.952924942E1,1.439642906E-2,3.261384368E-2,9.296035767E-2
1.953928970E1,8.460462093E-3,5.792394280E-2,1.077747345E-2
1.954929947E1,7.896840572E-3,6.385049224E-2,4.335498810E-2
1.955930924E1,-2.065300941E-3,3.246825933E-2,-4.313468933E-3
1.956934952E1,2.761274576E-3,-7.392525673E-3,5.300521851E-3
1.957935929E1,-1.142266393E-2,1.595672965E-2,-9.049415588E-3
1.958939957E1,-5.909234285E-3,-7.560312748E-3,-6.085586548E-2
1.959940933E1,4.596084356E-3,2.203205228E-2,-1.729679108E-2
1.960941910E1,2.903151512E-2,-3.339833021E-2,-1.710128784E-2
1.961942886E1,3.373631835E-2,-3.098270297E-2,2.104187012E-2
1.962946915E1,1.852485538E-2,-5.778563023E-2,1.615524292E-3
1.963947891E1,-5.538970232E-3,-3.773158789E-2,-4.554843903E-2
1.964951920E1,4.200205207E-2,-3.235852718E-2,-1.347026825E-1
1.965952896E1,-1.523292065E-2,2.161592245E-3,-1.087169647E-1
1.966956925E1,-7.717311382E-4,1.791742444E-2,-3.093242645E-2
1.967957901E1,-2.531811595E-2,-1.434668899E-2,2.151012421E-2
1.968958878E1,-1.738691330E-2,-3.295987844E-2,6.841373444E-2
1.969959854E1,-3.299987316E-2,-3.973245621E-4,1.287240982E-1
1.970960831E1,-2.443343401E-2,6.360799074E-3,1.594133377E-1
1.971964859E1,-4.867413640E-2,5.360940099E-2,1.187324524E-1
1.972968888E1,-6.239324808E-2,8.002519608E-2,5.974578857E-2
1.973969864E1,-3.789582849E-2,7.827308774E-2,-1.262569427E-2
1.974970841E1,-4.211145639E-2,1.056686640E-1,-2.206325531E-2
1.975974869E1,2.495831251E-2,7.782959938E-2,-8.311176300E-2
1.976975846E1,1.608723402E-2,3.786394000E-2,-9.115314484E-2
1.977976822E1,6.882846355E-3,9.353488684E-3,-7.060050964E-2
1.978980850E1,2.719759941E-3,-1.328551769E-2,-1.707935333E-2
1.979981827E1,-5.997568369E-3,-4.468607903E-2,6.872177124E-3
1.980985855E1,1.297768950E-2,-4.759237170E-2,6.690025330E-3
1.981986832E1,-2.033138275E-2,-6.070473790E-2,3.472709656E-2
1.982987808E1,8.101731539E-3,-3.595316410E-2,3.856563568E-2
1.983991837E1,-1.569858193E-2,-6.462073326E-2,1.410102844E-2
1.984992813E1,2.711093426E-2,-7.653027773E-3,-4.889488220E-3
1.985996842E1,-6.228238344E-3,-3.674018383E-2,-1.913261414E-2
1.986997818E1,2.225726843E-2,5.927324295E-3,3.814697266E-6
1.987998795E1,-7.070064545E-3,3.432184458E-2,-2.340698242E-2
1.989002823E1,1.087617874E-2,5.874037743E-3,2.889156342E-2
1.990003800E1,-1.332905889E-2,2.442806959E-2,4.742145538E-2
1.991004776E1,1.333445311E-3,3.304228187E-2,3.838539124E-3
1.992008804E1,-1.977145672E-3,3.236427903E-2,-3.367710114E-2
1.993009781E1,-1.938724518E-2,-1.515281200E-2,-9.906578064E-2
1.994013809E1,9.927749634E-4,5.148053169E-3,-5.014801025E-2
1.995014786E1,2.962401509E-2,-2.647504210E-2,7.607460022E-3
1.996015762E1,-5.207172036E-2,-2.440086007E-2,2.179718018E-2
1.997016739E1,-2.497136593E-4,-2.318602800E-2,4.031944275E-2
1.998020767E1,-1.699984074E-3,4.894137383E-4,1.247520447E-1
1.999021744E1,-2.689743042E-2,4.000037909E-3,8.008766174E-2
2.000022720E1,-4.179805517E-3,1.181772351E-2,2.820014954E-3
2.001026749E1,-5.537271500E-5,5.783909559E-2,2.491950989E-3
2.002027725E1,-1.025027037E-2,8.003878593E-2,-6.643295288E-3
2.003031754E1,-8.438229561E-4,2.742177248E-2,-1.419067383E-3
2.004032730E1,8.161246777E-3,1.347985864E-2,-6.175041199E-3
2.005036759E1,-2.338767052E-3,2.815821767E-2,5.043411255E-2
2.006037735E1,6.844222546E-3,-9.471714497E-3,2.118110657E-2
